#time,accel_x,accel_y,accel_z
4389.097062,296.082377,-8733.488677,-740.205942
4389.097386,0.000000,-8886.707777,-296.082377
4389.097711,0.000000,-8580.269578,-222.061783
4389.098035,222.061783,-8733.488677,148.041188
4389.098359,814.226536,-8580.269578,0.000000
4389.098683,518.144159,-8656.879127,148.041188
4389.099007,518.144159,-8273.831378,148.041188
4389.099332,814.226536,-8886.707777,444.123565
4389.099656,444.123565,-8656.879127,148.041188
4389.099980,518.144159,-8656.879127,444.123565
4389.100304,592.164754,-8427.050478,296.082377
4389.100628,1036.288319,-8656.879127,444.123565
4389.100953,814.226536,-8350.440928,666.185348
4389.101277,740.205942,-8503.660028,666.185348
4389.101601,444.123565,-8273.831378,518.144159
4389.101926,444.123565,-8810.098227,666.185348
4389.102250,666.185348,-8350.440928,888.247130
4389.102574,518.144159,-8273.831378,1036.288319
4389.102898,370.102971,-8656.879127,666.185348
4389.103223,444.123565,-8810.098227,814.226536
4389.103547,666.185348,-8810.098227,888.247130
4389.103871,370.102971,-8580.269578,370.102971
4389.104196,592.164754,-8350.440928,592.164754
4389.104520,296.082377,-8427.050478,518.144159
4389.104844,444.123565,-8044.002729,444.123565
4389.105168,444.123565,-8427.050478,518.144159
4389.105493,518.144159,-8810.098227,222.061783
4389.105817,370.102971,-8656.879127,814.226536
4389.106141,148.041188,-8656.879127,740.205942
4389.106466,592.164754,-8963.317327,592.164754
4389.106790,370.102971,-8427.050478,296.082377
4389.107114,370.102971,-8503.660028,518.144159
4389.107438,370.102971,-8503.660028,296.082377
4389.107763,222.061783,-8197.221829,666.185348
4389.108087,296.082377,-8580.269578,148.041188
4389.108411,444.123565,-8580.269578,0.000000
4389.108736,74.020594,-8427.050478,148.041188
4389.109060,74.020594,-8656.879127,0.000000
4389.109384,296.082377,-8273.831378,74.020594
4389.109708,370.102971,-8350.440928,148.041188
4389.110033,148.041188,-8503.660028,0.000000
4389.110357,0.000000,-8427.050478,0.000000
4389.110681,0.000000,-8427.050478,148.041188
4389.111006,296.082377,-8733.488677,-222.061783
4389.111330,296.082377,-8656.879127,-444.123565
4389.111654,222.061783,-8580.269578,-296.082377
4389.111978,74.020594,-8656.879127,-296.082377
4389.112303,444.123565,-8273.831378,-666.185348
4389.112627,814.226536,-8350.440928,-814.226536
4389.112951,740.205942,-8350.440928,-370.102971
4389.113276,740.205942,-8197.221829,-666.185348
4389.113600,740.205942,-8503.660028,-740.205942
4389.113924,592.164754,-8273.831378,-666.185348
4389.114248,666.185348,-8350.440928,-666.185348
4389.114573,-148.041188,-8963.317327,-962.267725
4389.114897,148.041188,-8503.660028,-666.185348
4389.115221,444.123565,-8656.879127,-592.164754
4389.115546,814.226536,-8120.612279,-1036.288319
4389.115870,666.185348,-9039.926876,-666.185348
4389.116194,814.226536,-8503.660028,-740.205942
4389.116518,740.205942,-8580.269578,-518.144159
4389.116843,592.164754,-8503.660028,-962.267725
4389.117167,666.185348,-8810.098227,-444.123565
4389.117491,296.082377,-8350.440928,-666.185348
4389.117816,592.164754,-8810.098227,-814.226536
4389.118140,444.123565,-8810.098227,-666.185348
4389.118464,370.102971,-9193.145976,-666.185348
4389.118788,518.144159,-8580.269578,-740.205942
4389.119113,666.185348,-8733.488677,-666.185348
4389.119437,814.226536,-9116.536426,-1110.308913
4389.119761,740.205942,-8427.050478,-444.123565
4389.120086,444.123565,-8580.269578,-740.205942
4389.120410,518.144159,-8963.317327,-814.226536
4389.120734,296.082377,-8580.269578,-592.164754
4389.121058,74.020594,-8733.488677,-666.185348
4389.121383,74.020594,-9193.145976,-814.226536
4389.121707,0.000000,-8886.707777,-592.164754
4389.122031,0.000000,-9729.412825,-592.164754
4389.122356,0.000000,-8810.098227,-592.164754
4389.122680,0.000000,-9269.755526,-592.164754
4389.123004,148.041188,-8886.707777,-518.144159
4389.123328,222.061783,-8886.707777,0.000000
4389.123653,74.020594,-8963.317327,-666.185348
4389.123977,222.061783,-9116.536426,-592.164754
4389.124301,222.061783,-8656.879127,-444.123565
4389.124626,148.041188,-8886.707777,-518.144159
4389.124950,370.102971,-8656.879127,-444.123565
4389.125274,296.082377,-8886.707777,-370.102971
4389.125598,222.061783,-8810.098227,-148.041188
4389.125923,222.061783,-8580.269578,0.000000
4389.126247,370.102971,-8656.879127,0.000000
4389.126571,518.144159,-8963.317327,0.000000
4389.126896,444.123565,-8503.660028,0.000000
4389.127220,518.144159,-8656.879127,0.000000
4389.127544,814.226536,-8503.660028,-518.144159
4389.127868,962.267725,-8273.831378,-370.102971
4389.128193,592.164754,-8580.269578,-222.061783
4389.128517,444.123565,-8350.440928,222.061783
4389.128841,740.205942,-8733.488677,74.020594
4389.129166,518.144159,-8197.221829,222.061783
4389.129490,740.205942,-8273.831378,148.041188
4389.129814,814.226536,-8656.879127,148.041188
4389.130138,1036.288319,-8656.879127,296.082377
4389.130463,1184.329507,-8350.440928,296.082377
4389.130787,962.267725,-8580.269578,148.041188
4389.131111,1036.288319,-8656.879127,74.020594
4389.131436,962.267725,-8197.221829,370.102971
4389.131760,962.267725,-8580.269578,148.041188
4389.132084,592.164754,-8656.879127,370.102971
4389.132408,444.123565,-8427.050478,444.123565
4389.132733,518.144159,-8733.488677,444.123565
4389.133057,518.144159,-8503.660028,370.102971
4389.133381,222.061783,-8810.098227,444.123565
4389.133706,740.205942,-8427.050478,592.164754
4389.134030,370.102971,-8350.440928,444.123565
4389.134354,148.041188,-8733.488677,444.123565
4389.134678,592.164754,-8197.221829,814.226536
4389.135003,518.144159,-8197.221829,370.102971
4389.135327,444.123565,-8427.050478,518.144159
4389.135651,518.144159,-8350.440928,518.144159
4389.135976,814.226536,-8810.098227,518.144159
4389.136300,518.144159,-8197.221829,296.082377
4389.136624,518.144159,-8580.269578,592.164754
4389.136948,296.082377,-8427.050478,296.082377
4389.137273,666.185348,-8350.440928,222.061783
4389.137597,222.061783,-8350.440928,296.082377
4389.137921,74.020594,-8656.879127,370.102971
4389.138246,222.061783,-8273.831378,296.082377
4389.138570,74.020594,-8350.440928,0.000000
4389.138894,0.000000,-8886.707777,740.205942
4389.139218,74.020594,-8503.660028,0.000000
4389.139543,148.041188,-8427.050478,222.061783
4389.139867,222.061783,-8120.612279,148.041188
4389.140191,592.164754,-9039.926876,74.020594
4389.140516,518.144159,-8810.098227,0.000000
4389.140840,444.123565,-8350.440928,0.000000
4389.141164,222.061783,-8656.879127,74.020594
4389.141488,370.102971,-8503.660028,-222.061783
4389.141813,222.061783,-8427.050478,0.000000
4389.142137,518.144159,-8580.269578,0.000000
4389.142461,444.123565,-8580.269578,74.020594
4389.142786,518.144159,-8656.879127,0.000000
4389.143110,518.144159,-8197.221829,-444.123565
4389.143434,296.082377,-8580.269578,0.000000
4389.143758,444.123565,-9116.536426,-370.102971
4389.144083,444.123565,-8427.050478,-148.041188
4389.144407,74.020594,-8656.879127,148.041188
4389.144731,74.020594,-8580.269578,-370.102971
4389.145056,74.020594,-8580.269578,0.000000
4389.145380,148.041188,-8886.707777,0.000000
4389.145704,0.000000,-8810.098227,-148.041188
4389.146028,592.164754,-8733.488677,0.000000
4389.146353,666.185348,-8427.050478,0.000000
4389.146677,518.144159,-8580.269578,0.000000
4389.147001,518.144159,-8350.440928,-592.164754
4389.147326,814.226536,-8963.317327,-444.123565
4389.147650,592.164754,-7967.393179,-518.144159
4389.147974,148.041188,-8580.269578,-296.082377
4389.148298,0.000000,-8427.050478,-592.164754
4389.148623,74.020594,-8580.269578,-444.123565
4389.148947,222.061783,-8580.269578,-740.205942
4389.149271,222.061783,-8580.269578,-370.102971
4389.149596,296.082377,-8656.879127,-444.123565
4389.149920,444.123565,-8503.660028,-444.123565
4389.150244,740.205942,-8656.879127,-592.164754
4389.150568,222.061783,-8580.269578,-592.164754
4389.150893,444.123565,-8733.488677,-666.185348
4389.151217,370.102971,-8273.831378,-444.123565
4389.151541,296.082377,-8656.879127,-518.144159
4389.151866,0.000000,-8733.488677,0.000000
4389.152190,370.102971,-8580.269578,-370.102971
4389.152514,444.123565,-8427.050478,-444.123565
4389.152838,666.185348,-8886.707777,-296.082377
4389.153163,74.020594,-8963.317327,0.000000
4389.153487,444.123565,-8810.098227,-148.041188
4389.153811,592.164754,-8427.050478,0.000000
4389.154136,444.123565,-8733.488677,-370.102971
4389.154460,296.082377,-8350.440928,296.082377
4389.154784,148.041188,-8350.440928,0.000000
4389.155108,148.041188,-8656.879127,-296.082377
4389.155433,222.061783,-8427.050478,0.000000
4389.155757,444.123565,-8580.269578,296.082377
4389.156081,370.102971,-8656.879127,0.000000
4389.156406,370.102971,-8963.317327,0.000000
4389.156730,296.082377,-8580.269578,0.000000
4389.157054,222.061783,-8733.488677,0.000000
4389.157378,370.102971,-7890.783629,-592.164754
4389.157703,222.061783,-8810.098227,0.000000
4389.158027,666.185348,-8503.660028,-296.082377
4389.158351,666.185348,-8656.879127,0.000000
4389.158676,666.185348,-8350.440928,148.041188
4389.159000,444.123565,-8580.269578,0.000000
4389.159324,666.185348,-8580.269578,-296.082377
4389.159648,592.164754,-8656.879127,-296.082377
4389.159973,444.123565,-8733.488677,-296.082377
4389.160297,444.123565,-8427.050478,-444.123565
4389.160621,592.164754,-8427.050478,-444.123565
4389.160946,518.144159,-8580.269578,-444.123565
4389.161270,518.144159,-8503.660028,-370.102971
4389.161594,740.205942,-8580.269578,-444.123565
4389.161918,222.061783,-8350.440928,-888.247130
4389.162243,444.123565,-8810.098227,-666.185348
4389.162567,444.123565,-8120.612279,-592.164754
4389.162891,888.247130,-8503.660028,-740.205942
4389.163216,296.082377,-8120.612279,-666.185348
4389.163540,370.102971,-8580.269578,-370.102971
4389.163864,444.123565,-8733.488677,-592.164754
4389.164188,518.144159,-8656.879127,-444.123565
4389.164513,444.123565,-8580.269578,-666.185348
4389.164837,592.164754,-8810.098227,-444.123565
4389.165161,370.102971,-8120.612279,-444.123565
4389.165486,370.102971,-8733.488677,-518.144159
4389.165810,444.123565,-8427.050478,-444.123565
4389.166134,444.123565,-8044.002729,-518.144159
4389.166458,592.164754,-8580.269578,-888.247130
4389.166783,370.102971,-8733.488677,-740.205942
4389.167107,370.102971,-8733.488677,-444.123565
4389.167431,222.061783,-8503.660028,-592.164754
4389.167756,296.082377,-8580.269578,-666.185348
4389.168080,370.102971,-8503.660028,-888.247130
4389.168404,444.123565,-8503.660028,-666.185348
4389.168728,222.061783,-7967.393179,-370.102971
4389.169053,222.061783,-8503.660028,-444.123565
4389.169377,370.102971,-8350.440928,-518.144159
4389.169701,666.185348,-8503.660028,-740.205942
4389.170026,518.144159,-8810.098227,-518.144159
4389.170350,74.020594,-8503.660028,-592.164754
4389.170674,370.102971,-8580.269578,-592.164754
4389.170998,296.082377,-8580.269578,-592.164754
4389.171323,148.041188,-7814.174080,-592.164754
4389.171647,222.061783,-8656.879127,-444.123565
4389.171971,296.082377,-8350.440928,-370.102971
4389.172296,222.061783,-8656.879127,-592.164754
4389.172620,148.041188,-8810.098227,-518.144159
4389.172944,0.000000,-8656.879127,-666.185348
4389.173268,222.061783,-8656.879127,-814.226536
4389.173593,0.000000,-8580.269578,-296.082377
4389.173917,0.000000,-8733.488677,-518.144159
4389.174241,0.000000,-8350.440928,-370.102971
4389.174566,222.061783,-8427.050478,-370.102971
4389.174890,518.144159,-8503.660028,-888.247130
4389.175214,222.061783,-8733.488677,-370.102971
4389.175538,296.082377,-8656.879127,-518.144159
4389.175863,444.123565,-8580.269578,-592.164754
4389.176187,74.020594,-8580.269578,-592.164754
4389.176511,370.102971,-8656.879127,-296.082377
4389.176836,370.102971,-8656.879127,-888.247130
4389.177160,222.061783,-8580.269578,-148.041188
4389.177484,592.164754,-8656.879127,-962.267725
4389.177808,592.164754,-8810.098227,-592.164754
4389.178133,296.082377,-8580.269578,-666.185348
4389.178457,888.247130,-8810.098227,-666.185348
4389.178781,518.144159,-8810.098227,-666.185348
4389.179106,518.144159,-8427.050478,-444.123565
4389.179430,222.061783,-8733.488677,-740.205942
4389.179754,148.041188,-8656.879127,-592.164754
4389.180078,518.144159,-8580.269578,-444.123565
4389.180403,814.226536,-9116.536426,-814.226536
4389.180727,814.226536,-8810.098227,-592.164754
4389.181051,814.226536,-8810.098227,-666.185348
4389.181376,814.226536,-8580.269578,-814.226536
4389.181700,1036.288319,-8580.269578,-740.205942
4389.182024,888.247130,-9193.145976,-962.267725
4389.182348,1036.288319,-8733.488677,-888.247130
4389.182673,518.144159,-8580.269578,-592.164754
4389.182997,666.185348,-8810.098227,-814.226536
4389.183321,1036.288319,-8733.488677,-888.247130
4389.183646,814.226536,-8580.269578,-888.247130
4389.183970,888.247130,-9039.926876,-1036.288319
4389.184294,1110.308913,-8656.879127,-1184.329507
4389.184618,814.226536,-8886.707777,-1110.308913
4389.184943,962.267725,-8963.317327,-1110.308913
4389.185267,814.226536,-8580.269578,-1184.329507
4389.185591,592.164754,-8886.707777,-1184.329507
4389.185916,814.226536,-8810.098227,-1184.329507
4389.186240,444.123565,-8810.098227,-1184.329507
4389.186564,444.123565,-9116.536426,-1110.308913
4389.186888,444.123565,-9652.803275,-740.205942
4389.187213,814.226536,-9193.145976,-1184.329507
4389.187537,444.123565,-8810.098227,-1110.308913
4389.187861,518.144159,-8810.098227,-1184.329507
4389.188186,666.185348,-8963.317327,-1110.308913
4389.188510,444.123565,-8810.098227,-888.247130
4389.188834,666.185348,-8810.098227,-1184.329507
4389.189158,740.205942,-8886.707777,-962.267725
4389.189483,666.185348,-8580.269578,-962.267725
4389.189807,0.000000,-9269.755526,-592.164754
4389.190131,0.000000,-8886.707777,-1110.308913
4389.190456,296.082377,-8810.098227,-814.226536
4389.190780,0.000000,-8656.879127,-1184.329507
4389.191104,148.041188,-9116.536426,-666.185348
4389.191428,0.000000,-8656.879127,-888.247130
4389.191753,296.082377,-8810.098227,-888.247130
4389.192077,296.082377,-8503.660028,-666.185348
4389.192401,444.123565,-8810.098227,-740.205942
4389.192726,222.061783,-8733.488677,-592.164754
4389.193050,518.144159,-8350.440928,-592.164754
4389.193374,518.144159,-8580.269578,-814.226536
4389.193698,444.123565,-8580.269578,-666.185348
4389.194023,518.144159,-8733.488677,-518.144159
4389.194347,518.144159,-8886.707777,-740.205942
4389.194671,518.144159,-8427.050478,-444.123565
4389.194996,370.102971,-8656.879127,-592.164754
4389.195320,444.123565,-8197.221829,-740.205942
4389.195644,148.041188,-8197.221829,-518.144159
4389.195968,222.061783,-8273.831378,-592.164754
4389.196293,444.123565,-8427.050478,-444.123565
4389.196617,296.082377,-7890.783629,-518.144159
4389.196941,74.020594,-8580.269578,-444.123565
4389.197266,148.041188,-8120.612279,-444.123565
4389.197590,592.164754,-8656.879127,-296.082377
4389.197914,222.061783,-8120.612279,-444.123565
4389.198238,592.164754,-8886.707777,0.000000
4389.198563,370.102971,-8273.831378,0.000000
4389.198887,518.144159,-8197.221829,0.000000
4389.199211,740.205942,-8273.831378,0.000000
4389.199536,370.102971,-8503.660028,0.000000
4389.199860,518.144159,-8427.050478,0.000000
4389.200184,370.102971,-8273.831378,74.020594
4389.200508,592.164754,-8503.660028,0.000000
4389.200833,666.185348,-8427.050478,0.000000
4389.201157,0.000000,-8810.098227,222.061783
4389.201481,444.123565,-8733.488677,0.000000
4389.201806,296.082377,-8503.660028,74.020594
4389.202130,518.144159,-8656.879127,0.000000
4389.202455,148.041188,-8273.831378,0.000000
4389.202779,74.020594,-8810.098227,74.020594
4389.203103,296.082377,-8580.269578,0.000000
4389.203428,444.123565,-8273.831378,0.000000
4389.203752,148.041188,-8427.050478,-148.041188
4389.204076,148.041188,-8350.440928,0.000000
4389.204401,518.144159,-8656.879127,0.000000
4389.204725,148.041188,-8503.660028,0.000000
4389.205049,666.185348,-8733.488677,0.000000
4389.205374,296.082377,-8656.879127,-222.061783
4389.205698,444.123565,-8656.879127,0.000000
4389.206022,444.123565,-8810.098227,0.000000
4389.206347,666.185348,-8733.488677,0.000000
4389.206671,740.205942,-9269.755526,-148.041188
4389.206995,370.102971,-8350.440928,148.041188
4389.207320,148.041188,-8886.707777,0.000000
4389.207644,370.102971,-8427.050478,0.000000
4389.207968,444.123565,-8427.050478,0.000000
4389.208293,666.185348,-8733.488677,0.000000
4389.208617,444.123565,-8503.660028,0.000000
4389.208941,0.000000,-8886.707777,0.000000
4389.209266,370.102971,-8503.660028,0.000000
4389.209590,444.123565,-8656.879127,0.000000
4389.209915,296.082377,-8733.488677,-148.041188
4389.210239,444.123565,-8350.440928,0.000000
4389.210563,296.082377,-8427.050478,0.000000
4389.210888,222.061783,-8810.098227,0.000000
4389.211212,370.102971,-8044.002729,-370.102971
4389.211536,518.144159,-8810.098227,-444.123565
4389.211861,296.082377,-8427.050478,-222.061783
4389.212185,518.144159,-8503.660028,-444.123565
4389.212509,888.247130,-8197.221829,0.000000
4389.212834,444.123565,-8350.440928,-444.123565
4389.213158,444.123565,-8656.879127,-518.144159
4389.213482,666.185348,-8810.098227,-740.205942
4389.213807,444.123565,-8963.317327,74.020594
4389.214131,74.020594,-8350.440928,-370.102971
4389.214455,222.061783,-8656.879127,-296.082377
4389.214780,814.226536,-8350.440928,-370.102971
4389.215104,518.144159,-8733.488677,-296.082377
4389.215428,444.123565,-8580.269578,-370.102971
4389.215753,370.102971,-8656.879127,-296.082377
4389.216077,444.123565,-8733.488677,-370.102971
4389.216401,444.123565,-8503.660028,-444.123565
4389.216726,296.082377,-8273.831378,-148.041188
4389.217050,296.082377,-8580.269578,-444.123565
4389.217375,444.123565,-8273.831378,-518.144159
4389.217699,444.123565,-8580.269578,-370.102971
4389.218023,444.123565,-8656.879127,0.000000
4389.218348,444.123565,-8503.660028,-518.144159
4389.218672,222.061783,-8503.660028,-666.185348
4389.218996,370.102971,-8427.050478,-296.082377
4389.219321,518.144159,-8273.831378,-518.144159
4389.219645,666.185348,-8503.660028,-370.102971
4389.219969,518.144159,-8427.050478,-592.164754
4389.220294,444.123565,-8580.269578,-296.082377
4389.220618,666.185348,-8580.269578,-592.164754
4389.220942,296.082377,-7967.393179,74.020594
4389.221267,296.082377,-8503.660028,-444.123565
4389.221591,222.061783,-8350.440928,-518.144159
4389.221915,592.164754,-8427.050478,-592.164754
4389.222240,148.041188,-8580.269578,-518.144159
4389.222564,296.082377,-8120.612279,-74.020594
4389.222888,296.082377,-8503.660028,-370.102971
4389.223213,518.144159,-8427.050478,-296.082377
4389.223537,296.082377,-8427.050478,-296.082377
4389.223862,296.082377,-8733.488677,0.000000
4389.224186,518.144159,-8503.660028,0.000000
4389.224510,222.061783,-8810.098227,0.000000
4389.224835,296.082377,-8503.660028,0.000000
4389.225159,370.102971,-7814.174080,74.020594
4389.225483,444.123565,-8427.050478,-296.082377
4389.225808,370.102971,-8656.879127,74.020594
4389.226132,222.061783,-8503.660028,0.000000
4389.226456,222.061783,-8656.879127,0.000000
4389.226781,222.061783,-8503.660028,0.000000
4389.227105,444.123565,-8580.269578,0.000000
4389.227429,518.144159,-8733.488677,0.000000
4389.227754,518.144159,-8503.660028,222.061783
4389.228078,296.082377,-7967.393179,0.000000
4389.228402,222.061783,-8810.098227,74.020594
4389.228727,370.102971,-8503.660028,-148.041188
4389.229051,592.164754,-8733.488677,0.000000
4389.229375,148.041188,-8427.050478,0.000000
4389.229700,518.144159,-8350.440928,0.000000
4389.230024,296.082377,-8656.879127,0.000000
4389.230348,518.144159,-8503.660028,0.000000
4389.230673,444.123565,-8503.660028,-148.041188
4389.230997,518.144159,-8503.660028,0.000000
4389.231322,222.061783,-8427.050478,0.000000
4389.231646,518.144159,-8427.050478,-296.082377
4389.231970,222.061783,-8427.050478,0.000000
4389.232295,740.205942,-8197.221829,0.000000
4389.232619,592.164754,-8656.879127,-296.082377
4389.232943,222.061783,-8580.269578,-148.041188
4389.233268,370.102971,-8733.488677,0.000000
4389.233592,592.164754,-7890.783629,0.000000
4389.233916,222.061783,-8580.269578,-296.082377
4389.234241,222.061783,-8810.098227,-370.102971
4389.234565,592.164754,-8503.660028,-518.144159
4389.234889,592.164754,-8656.879127,-222.061783
4389.235214,296.082377,-8427.050478,0.000000
4389.235538,592.164754,-8656.879127,-148.041188
4389.235862,444.123565,-8733.488677,-296.082377
4389.236187,740.205942,-8810.098227,-370.102971
4389.236511,518.144159,-7890.783629,-148.041188
4389.236835,666.185348,-8886.707777,0.000000
4389.237160,592.164754,-8733.488677,-370.102971
4389.237484,666.185348,-8656.879127,-222.061783
4389.237808,592.164754,-8886.707777,-296.082377
4389.238133,518.144159,-8427.050478,0.000000
4389.238457,518.144159,-8503.660028,-444.123565
4389.238782,518.144159,-9039.926876,-370.102971
4389.239106,666.185348,-8350.440928,-518.144159
4389.239430,518.144159,-8733.488677,0.000000
4389.239755,444.123565,-8733.488677,-296.082377
4389.240079,666.185348,-8886.707777,0.000000
4389.240403,444.123565,-8810.098227,-148.041188
4389.240728,518.144159,-8580.269578,0.000000
4389.241052,296.082377,-8810.098227,-222.061783
4389.241376,592.164754,-9116.536426,74.020594
4389.241701,740.205942,-8503.660028,0.000000
4389.242025,518.144159,-8656.879127,0.000000
4389.242349,296.082377,-8733.488677,0.000000
4389.242674,370.102971,-8810.098227,222.061783
4389.242998,370.102971,-8656.879127,0.000000
4389.243322,370.102971,-8580.269578,0.000000
4389.243647,296.082377,-8427.050478,0.000000
4389.243971,666.185348,-8886.707777,148.041188
4389.244295,370.102971,-8580.269578,-148.041188
4389.244620,518.144159,-8886.707777,0.000000
4389.244944,518.144159,-9193.145976,74.020594
4389.245268,222.061783,-8273.831378,0.000000
4389.245593,296.082377,-8733.488677,222.061783
4389.245917,518.144159,-8503.660028,0.000000
4389.246242,444.123565,-8580.269578,0.000000
4389.246566,0.000000,-8503.660028,0.000000
4389.246890,518.144159,-8886.707777,74.020594
4389.247215,444.123565,-8503.660028,0.000000
4389.247539,444.123565,-8503.660028,0.000000
4389.247863,370.102971,-8656.879127,74.020594
4389.248188,592.164754,-8733.488677,0.000000
4389.248512,518.144159,-8580.269578,0.000000
4389.248836,592.164754,-8656.879127,-296.082377
4389.249161,592.164754,-8733.488677,-444.123565
4389.249485,0.000000,-8886.707777,0.000000
4389.249809,74.020594,-8733.488677,0.000000
4389.250134,0.000000,-8503.660028,0.000000
4389.250458,148.041188,-8427.050478,-148.041188
4389.250782,222.061783,-8503.660028,0.000000
4389.251107,222.061783,-8810.098227,74.020594
4389.251431,518.144159,-8580.269578,-296.082377
4389.251755,518.144159,-9039.926876,-296.082377
4389.252080,666.185348,-7814.174080,222.061783
4389.252404,444.123565,-8503.660028,-148.041188
4389.252728,74.020594,-8580.269578,-222.061783
4389.253053,444.123565,-8580.269578,-222.061783
4389.253377,222.061783,-8350.440928,-222.061783
4389.253702,148.041188,-8273.831378,-296.082377
4389.254026,0.000000,-8733.488677,-148.041188
4389.254350,296.082377,-8656.879127,-370.102971
4389.254675,444.123565,-8350.440928,-444.123565
4389.254999,296.082377,-8733.488677,-444.123565
4389.255323,370.102971,-8733.488677,-666.185348
4389.255648,222.061783,-8427.050478,-296.082377
4389.255972,74.020594,-8427.050478,-666.185348
4389.256296,592.164754,-9422.974625,0.000000
4389.256621,518.144159,-8733.488677,-666.185348
4389.256945,74.020594,-8810.098227,-370.102971
4389.257269,444.123565,-8810.098227,-592.164754
4389.257594,148.041188,-8733.488677,-296.082377
4389.257918,370.102971,-8810.098227,-296.082377
4389.258242,0.000000,-8503.660028,-518.144159
4389.258567,296.082377,-8580.269578,-518.144159
4389.258891,296.082377,-8656.879127,-444.123565
4389.259215,222.061783,-8580.269578,0.000000
4389.259540,222.061783,-8733.488677,-370.102971
4389.259864,518.144159,-8886.707777,-592.164754
4389.260189,222.061783,-8580.269578,-444.123565
4389.260513,444.123565,-8810.098227,-222.061783
4389.260837,296.082377,-8503.660028,-370.102971
4389.261162,0.000000,-8810.098227,-296.082377
4389.261486,444.123565,-8503.660028,-444.123565
4389.261810,370.102971,-8427.050478,-518.144159
4389.262135,370.102971,-8810.098227,-370.102971
4389.262459,222.061783,-8427.050478,-592.164754
4389.262783,74.020594,-8427.050478,-444.123565
4389.263108,148.041188,-8886.707777,-518.144159
4389.263432,74.020594,-8350.440928,-148.041188
4389.263756,296.082377,-8656.879127,-592.164754
4389.264081,296.082377,-8503.660028,-444.123565
4389.264405,296.082377,-8656.879127,-370.102971
4389.264729,370.102971,-8273.831378,-814.226536
4389.265054,518.144159,-8580.269578,-518.144159
4389.265378,444.123565,-8427.050478,-666.185348
4389.265702,296.082377,-8503.660028,-592.164754
4389.266027,370.102971,-8273.831378,-518.144159
4389.266351,444.123565,-8350.440928,-740.205942
4389.266675,296.082377,-8350.440928,-370.102971
4389.267000,370.102971,-8503.660028,-592.164754
4389.267324,296.082377,-8656.879127,-444.123565
4389.267649,0.000000,-8273.831378,-518.144159
4389.267973,370.102971,-8733.488677,-296.082377
4389.268297,296.082377,-8580.269578,-222.061783
4389.268622,370.102971,-8273.831378,-370.102971
4389.268946,666.185348,-8733.488677,-666.185348
4389.269270,592.164754,-8580.269578,-296.082377
4389.269595,444.123565,-8044.002729,-296.082377
4389.269919,518.144159,-8580.269578,0.000000
4389.270243,296.082377,-8580.269578,0.000000
4389.270568,666.185348,-8427.050478,-370.102971
4389.270892,444.123565,-8350.440928,-222.061783
4389.271216,370.102971,-8503.660028,0.000000
4389.271541,148.041188,-8197.221829,-222.061783
4389.271865,592.164754,-8273.831378,-592.164754
4389.272189,148.041188,-8350.440928,-444.123565
4389.272514,518.144159,-8733.488677,-370.102971
4389.272838,518.144159,-8273.831378,-518.144159
4389.273162,518.144159,-8656.879127,-222.061783
4389.273487,296.082377,-8656.879127,-444.123565
4389.273811,518.144159,-8656.879127,-370.102971
4389.274135,296.082377,-8350.440928,-370.102971
4389.274460,148.041188,-8580.269578,-444.123565
4389.274784,592.164754,-8733.488677,-222.061783
4389.275109,444.123565,-8580.269578,-222.061783
4389.275433,296.082377,-8427.050478,-444.123565
4389.275757,666.185348,-8580.269578,-444.123565
4389.276082,814.226536,-8963.317327,-518.144159
4389.276406,444.123565,-8350.440928,-148.041188
4389.276730,592.164754,-8810.098227,-444.123565
4389.277055,444.123565,-8963.317327,-370.102971
4389.277379,592.164754,-8503.660028,0.000000
4389.277703,444.123565,-8580.269578,-222.061783
4389.278028,296.082377,-8810.098227,-296.082377
4389.278352,148.041188,-8350.440928,-296.082377
4389.278676,296.082377,-8580.269578,-296.082377
4389.279001,518.144159,-9039.926876,-296.082377
4389.279325,740.205942,-8503.660028,-592.164754
4389.279649,666.185348,-8733.488677,-370.102971
4389.279974,592.164754,-8427.050478,-222.061783
4389.280298,592.164754,-8810.098227,0.000000
4389.280622,296.082377,-8503.660028,-370.102971
4389.280947,592.164754,-8733.488677,-518.144159
4389.281271,518.144159,-8580.269578,-740.205942
4389.281595,518.144159,-8503.660028,-444.123565
4389.281920,518.144159,-8427.050478,-518.144159
4389.282244,518.144159,-8733.488677,-518.144159
4389.282569,592.164754,-8656.879127,-518.144159
4389.282893,814.226536,-8656.879127,-666.185348
4389.283217,814.226536,-8733.488677,-296.082377
4389.283542,740.205942,-8503.660028,-296.082377
4389.283866,592.164754,-8733.488677,-666.185348
4389.284190,518.144159,-8427.050478,-592.164754
4389.284515,592.164754,-8963.317327,-962.267725
4389.284839,740.205942,-8580.269578,-666.185348
4389.285163,444.123565,-8350.440928,-518.144159
4389.285488,370.102971,-8427.050478,-518.144159
4389.285812,814.226536,-8503.660028,-666.185348
4389.286136,518.144159,-8580.269578,-296.082377
4389.286461,740.205942,-8733.488677,-666.185348
4389.286785,814.226536,-8350.440928,-592.164754
4389.287109,814.226536,-8503.660028,-666.185348
4389.287434,740.205942,-8427.050478,-962.267725
4389.287758,666.185348,-8503.660028,-592.164754
4389.288082,740.205942,-8580.269578,-666.185348
4389.288407,814.226536,-8427.050478,-814.226536
4389.288731,592.164754,-8503.660028,-518.144159
4389.289055,592.164754,-8810.098227,-666.185348
4389.289380,592.164754,-8197.221829,-814.226536
4389.289704,592.164754,-8656.879127,-592.164754
4389.290029,814.226536,-8656.879127,-814.226536
4389.290353,1184.329507,-8503.660028,-814.226536
4389.290677,888.247130,-8350.440928,-888.247130
4389.291002,296.082377,-8656.879127,-888.247130
4389.291326,592.164754,-8656.879127,-962.267725
4389.291650,666.185348,-8580.269578,-740.205942
4389.291975,518.144159,-8886.707777,-814.226536
4389.292299,222.061783,-8580.269578,-592.164754
4389.292623,518.144159,-8733.488677,-592.164754
4389.292948,518.144159,-9269.755526,-740.205942
4389.293272,592.164754,-8810.098227,-740.205942
4389.293596,518.144159,-8810.098227,-370.102971
4389.293921,444.123565,-8273.831378,-518.144159
4389.294245,370.102971,-8733.488677,-666.185348
4389.294569,518.144159,-8733.488677,-740.205942
4389.294894,518.144159,-8810.098227,-296.082377
4389.295218,592.164754,-8733.488677,-666.185348
4389.295542,592.164754,-8886.707777,-518.144159
4389.295867,518.144159,-9116.536426,-444.123565
4389.296191,518.144159,-8656.879127,-592.164754
4389.296516,444.123565,-8810.098227,-592.164754
4389.296840,444.123565,-8656.879127,-296.082377
4389.297164,296.082377,-8810.098227,-222.061783
4389.297489,222.061783,-8580.269578,-518.144159
4389.297813,296.082377,-8733.488677,-666.185348
4389.298137,0.000000,-8733.488677,-296.082377
4389.298462,222.061783,-8733.488677,-740.205942
4389.298786,518.144159,-9116.536426,-148.041188
4389.299110,222.061783,-8810.098227,0.000000
4389.299435,444.123565,-8733.488677,-222.061783
4389.299759,444.123565,-8580.269578,-444.123565
4389.300083,370.102971,-8963.317327,-296.082377
4389.300408,518.144159,-8810.098227,-740.205942
4389.300732,518.144159,-8656.879127,-444.123565
4389.301056,0.000000,-8503.660028,-518.144159
4389.301381,222.061783,-8886.707777,-444.123565
4389.301705,148.041188,-8656.879127,-444.123565
4389.302030,518.144159,-8733.488677,-518.144159
4389.302354,444.123565,-8503.660028,-518.144159
4389.302678,518.144159,-8656.879127,-148.041188
4389.303003,370.102971,-8886.707777,0.000000
4389.303327,518.144159,-8810.098227,-296.082377
4389.303652,666.185348,-8733.488677,-518.144159
4389.303976,592.164754,-8503.660028,-370.102971
4389.304301,666.185348,-8810.098227,-296.082377
4389.304625,222.061783,-8886.707777,-296.082377
4389.304949,0.000000,-8886.707777,0.000000
4389.305274,222.061783,-8503.660028,-296.082377
4389.305598,592.164754,-8580.269578,-518.144159
4389.305923,518.144159,-8427.050478,0.000000
4389.306247,888.247130,-8656.879127,-222.061783
4389.306571,518.144159,-8733.488677,-222.061783
4389.306896,296.082377,-8273.831378,-592.164754
4389.307220,296.082377,-9039.926876,148.041188
4389.307545,296.082377,-8580.269578,-370.102971
4389.307869,444.123565,-8580.269578,-296.082377
4389.308194,370.102971,-8580.269578,-444.123565
4389.308518,518.144159,-9269.755526,-148.041188
4389.308842,518.144159,-8580.269578,-592.164754
4389.309167,370.102971,-8656.879127,-444.123565
4389.309491,296.082377,-8580.269578,-296.082377
4389.309816,518.144159,-8733.488677,-370.102971
4389.310140,1036.288319,-8580.269578,-518.144159
4389.310465,592.164754,-8350.440928,-370.102971
4389.310789,370.102971,-8886.707777,-592.164754
4389.311113,444.123565,-8810.098227,-148.041188
4389.311438,814.226536,-8350.440928,-370.102971
4389.311762,148.041188,-8886.707777,-444.123565
4389.312087,222.061783,-8580.269578,-148.041188
4389.312411,518.144159,-8580.269578,-444.123565
4389.312736,518.144159,-8656.879127,-148.041188
4389.313060,518.144159,-8427.050478,-222.061783
4389.313384,148.041188,-8733.488677,-222.061783
4389.313709,296.082377,-8273.831378,-296.082377
4389.314033,370.102971,-8656.879127,-296.082377
4389.314358,888.247130,-8733.488677,-370.102971
4389.314682,222.061783,-8427.050478,0.000000
4389.315006,222.061783,-8656.879127,-222.061783
4389.315331,370.102971,-8503.660028,-518.144159
4389.315655,518.144159,-8886.707777,-222.061783
4389.315980,518.144159,-8733.488677,-444.123565
4389.316304,148.041188,-8503.660028,-222.061783
4389.316629,222.061783,-8580.269578,-296.082377
4389.316953,518.144159,-8810.098227,-592.164754
4389.317277,444.123565,-8580.269578,-444.123565
4389.317602,222.061783,-8733.488677,-518.144159
4389.317926,222.061783,-8656.879127,-370.102971
4389.318251,370.102971,-8273.831378,-222.061783
4389.318575,592.164754,-8810.098227,-370.102971
4389.318900,444.123565,-8580.269578,-518.144159
4389.319224,518.144159,-8580.269578,-370.102971
4389.319548,518.144159,-8810.098227,-444.123565
4389.319873,296.082377,-9039.926876,74.020594
4389.320197,370.102971,-8580.269578,-814.226536
4389.320522,518.144159,-8733.488677,-222.061783
4389.320846,296.082377,-8273.831378,-222.061783
4389.321170,370.102971,-8963.317327,-666.185348
4389.321495,592.164754,-8733.488677,-444.123565
4389.321819,296.082377,-8503.660028,-370.102971
4389.322144,74.020594,-9116.536426,-666.185348
4389.322468,296.082377,-8350.440928,-592.164754
4389.322793,592.164754,-8350.440928,0.000000
4389.323117,296.082377,-8580.269578,-518.144159
4389.323441,592.164754,-8886.707777,-444.123565
4389.323766,518.144159,-8886.707777,-518.144159
4389.324090,518.144159,-8580.269578,74.020594
4389.324415,518.144159,-8580.269578,-666.185348
4389.324739,444.123565,-8656.879127,-148.041188
4389.325064,296.082377,-8580.269578,-518.144159
4389.325388,296.082377,-8810.098227,-444.123565
4389.325712,222.061783,-8810.098227,-296.082377
4389.326037,222.061783,-8503.660028,-222.061783
4389.326361,666.185348,-8810.098227,-518.144159
4389.326686,444.123565,-8886.707777,-444.123565
4389.327010,370.102971,-8044.002729,0.000000
4389.327335,444.123565,-8580.269578,-444.123565
4389.327659,666.185348,-8810.098227,-296.082377
4389.327983,666.185348,-8427.050478,-370.102971
4389.328308,518.144159,-8963.317327,-444.123565
4389.328632,518.144159,-8580.269578,-222.061783
4389.328957,222.061783,-8810.098227,-296.082377
4389.329281,296.082377,-8810.098227,0.000000
4389.329605,370.102971,-8427.050478,-148.041188
4389.329930,740.205942,-8810.098227,-370.102971
4389.330254,444.123565,-8810.098227,0.000000
4389.330579,666.185348,-8350.440928,-222.061783
4389.330903,518.144159,-8503.660028,-148.041188
4389.331228,740.205942,-8580.269578,-222.061783
4389.331552,666.185348,-8656.879127,-148.041188
4389.331876,370.102971,-8580.269578,0.000000
4389.332201,370.102971,-8580.269578,0.000000
4389.332525,296.082377,-8197.221829,-370.102971
4389.332850,148.041188,-8350.440928,-370.102971
4389.333174,518.144159,-8580.269578,-296.082377
4389.333499,518.144159,-9039.926876,-370.102971
4389.333823,370.102971,-8733.488677,-370.102971
4389.334147,592.164754,-8120.612279,-592.164754
4389.334472,296.082377,-8503.660028,0.000000
4389.334796,518.144159,-8197.221829,-296.082377
4389.335121,592.164754,-8733.488677,-370.102971
4389.335445,1110.308913,-8427.050478,-592.164754
4389.335770,592.164754,-8350.440928,-222.061783
4389.336094,148.041188,-8427.050478,-370.102971
4389.336418,222.061783,-8427.050478,-296.082377
4389.336743,444.123565,-8427.050478,-518.144159
4389.337067,888.247130,-8503.660028,-592.164754
4389.337392,296.082377,-8197.221829,0.000000
4389.337716,444.123565,-8656.879127,-518.144159
4389.338040,296.082377,-8427.050478,-222.061783
4389.338365,592.164754,-9193.145976,-296.082377
4389.338689,296.082377,-8656.879127,-370.102971
4389.339014,444.123565,-8273.831378,-296.082377
4389.339338,296.082377,-8427.050478,0.000000
4389.339663,296.082377,-8733.488677,0.000000
4389.339987,518.144159,-8503.660028,0.000000
4389.340311,444.123565,-8580.269578,-296.082377
4389.340636,592.164754,-8350.440928,-296.082377
4389.340960,296.082377,-8656.879127,0.000000
4389.341285,592.164754,-8503.660028,74.020594
4389.341609,296.082377,-8273.831378,-148.041188
4389.341934,444.123565,-8580.269578,-222.061783
4389.342258,296.082377,-8503.660028,-370.102971
4389.342582,370.102971,-8120.612279,-296.082377
4389.342907,0.000000,-8733.488677,0.000000
4389.343231,296.082377,-8733.488677,-148.041188
4389.343556,518.144159,-8656.879127,-296.082377
4389.343880,444.123565,-8580.269578,-148.041188
4389.344204,666.185348,-8733.488677,-148.041188
4389.344529,444.123565,-8580.269578,-222.061783
4389.344853,296.082377,-8656.879127,-74.020594
4389.345178,222.061783,-8427.050478,0.000000
4389.345502,592.164754,-8810.098227,0.000000
4389.345827,518.144159,-8810.098227,-296.082377
4389.346151,222.061783,-8350.440928,74.020594
4389.346475,444.123565,-8350.440928,0.000000
4389.346800,444.123565,-8656.879127,-222.061783
4389.347124,518.144159,-8427.050478,0.000000
4389.347449,296.082377,-8580.269578,0.000000
4389.347773,444.123565,-8733.488677,0.000000
4389.348098,370.102971,-8580.269578,0.000000
4389.348422,370.102971,-8886.707777,0.000000
4389.348746,148.041188,-8580.269578,0.000000
4389.349071,148.041188,-8810.098227,0.000000
4389.349395,222.061783,-8656.879127,0.000000
4389.349720,592.164754,-9039.926876,0.000000
4389.350044,74.020594,-8810.098227,0.000000
4389.350369,444.123565,-8656.879127,0.000000
4389.350693,296.082377,-8580.269578,0.000000
4389.351017,296.082377,-9499.584175,0.000000
4389.351342,296.082377,-8427.050478,222.061783
4389.351666,148.041188,-8733.488677,-74.020594
4389.351991,370.102971,-8580.269578,0.000000
4389.352315,222.061783,-8350.440928,-148.041188
4389.352639,296.082377,-8963.317327,0.000000
4389.352964,518.144159,-8350.440928,0.000000
4389.353288,370.102971,-8503.660028,0.000000
4389.353613,74.020594,-8580.269578,0.000000
4389.353937,0.000000,-8273.831378,148.041188
4389.354262,370.102971,-8580.269578,0.000000
4389.354586,370.102971,-8580.269578,0.000000
4389.354910,74.020594,-8656.879127,0.000000
4389.355235,444.123565,-9499.584175,0.000000
4389.355559,518.144159,-8656.879127,-222.061783
4389.355884,370.102971,-8656.879127,-444.123565
4389.356208,370.102971,-8580.269578,-148.041188
4389.356533,222.061783,-8350.440928,-222.061783
4389.356857,74.020594,-8503.660028,-148.041188
4389.357181,296.082377,-8273.831378,-370.102971
4389.357506,518.144159,-8427.050478,-222.061783
4389.357830,518.144159,-8733.488677,-222.061783
4389.358155,518.144159,-8656.879127,-296.082377
4389.358479,518.144159,-8580.269578,-370.102971
4389.358803,444.123565,-8580.269578,-370.102971
4389.359128,296.082377,-8503.660028,-296.082377
4389.359452,296.082377,-8733.488677,-444.123565
4389.359777,444.123565,-8503.660028,-74.020594
4389.360101,74.020594,-8503.660028,-296.082377
4389.360426,296.082377,-8503.660028,-444.123565
4389.360750,222.061783,-8350.440928,-370.102971
4389.361074,444.123565,-8044.002729,-592.164754
4389.361399,518.144159,-8427.050478,-518.144159
4389.361723,296.082377,-8503.660028,-296.082377
4389.362048,592.164754,-8580.269578,-592.164754
4389.362372,222.061783,-8350.440928,-296.082377
4389.362697,518.144159,-8580.269578,-518.144159
4389.363021,370.102971,-8656.879127,-592.164754
4389.363345,518.144159,-8580.269578,-370.102971
4389.363670,370.102971,-8503.660028,-518.144159
4389.363994,0.000000,-8733.488677,-296.082377
4389.364319,370.102971,-8350.440928,-370.102971
4389.364643,296.082377,-8503.660028,-296.082377
4389.364968,444.123565,-8580.269578,-370.102971
4389.365292,222.061783,-8886.707777,0.000000
4389.365616,444.123565,-8733.488677,-222.061783
4389.365941,222.061783,-8273.831378,-370.102971
4389.366265,444.123565,-8580.269578,-296.082377
4389.366590,370.102971,-9193.145976,0.000000
4389.366914,296.082377,-8273.831378,0.000000
4389.367238,148.041188,-8810.098227,0.000000
4389.367563,518.144159,-8503.660028,-222.061783
4389.367887,296.082377,-8656.879127,-296.082377
4389.368212,518.144159,-8963.317327,-222.061783
4389.368536,296.082377,-8810.098227,0.000000
4389.368861,148.041188,-8810.098227,-148.041188
4389.369185,444.123565,-9039.926876,0.000000
4389.369509,148.041188,-9116.536426,518.144159
4389.369834,666.185348,-8733.488677,-296.082377
4389.370158,444.123565,-8656.879127,-222.061783
4389.370483,518.144159,-8427.050478,-148.041188
4389.370807,370.102971,-9039.926876,0.000000
4389.371132,222.061783,-8810.098227,-74.020594
4389.371456,444.123565,-8656.879127,0.000000
4389.371780,370.102971,-8733.488677,-296.082377
4389.372105,518.144159,-8503.660028,-74.020594
4389.372429,296.082377,-8886.707777,-148.041188
4389.372754,592.164754,-8733.488677,0.000000
4389.373078,296.082377,-8427.050478,-444.123565
4389.373403,444.123565,-8810.098227,-370.102971
4389.373727,222.061783,-9039.926876,370.102971
4389.374051,370.102971,-8503.660028,0.000000
4389.374376,444.123565,-8886.707777,0.000000
4389.374700,518.144159,-8580.269578,-222.061783
4389.375025,370.102971,-9116.536426,-296.082377
4389.375349,592.164754,-8580.269578,-370.102971
4389.375673,518.144159,-8503.660028,74.020594
4389.375998,370.102971,-8810.098227,0.000000
4389.376322,592.164754,-8656.879127,-148.041188
4389.376647,592.164754,-8273.831378,-296.082377
4389.376971,518.144159,-8580.269578,-518.144159
4389.377296,370.102971,-8197.221829,0.000000
4389.377620,296.082377,-8427.050478,0.000000
4389.377944,444.123565,-8427.050478,-296.082377
4389.378269,370.102971,-8503.660028,-148.041188
4389.378593,518.144159,-8350.440928,-222.061783
4389.378918,592.164754,-8503.660028,-370.102971
4389.379242,666.185348,-8503.660028,-296.082377
4389.379567,592.164754,-8733.488677,-444.123565
4389.379891,444.123565,-8350.440928,-222.061783
4389.380215,370.102971,-8656.879127,-370.102971
4389.380540,370.102971,-8963.317327,-148.041188
4389.380864,518.144159,-7967.393179,-148.041188
4389.381189,296.082377,-8733.488677,-444.123565
4389.381513,444.123565,-8580.269578,-296.082377
4389.381837,518.144159,-8503.660028,-370.102971
4389.382162,296.082377,-8810.098227,-296.082377
4389.382486,592.164754,-8273.831378,-370.102971
4389.382811,444.123565,-8733.488677,-222.061783
4389.383135,592.164754,-8503.660028,-592.164754
4389.383460,444.123565,-8503.660028,-592.164754
4389.383784,666.185348,-8580.269578,-666.185348
4389.384108,444.123565,-8350.440928,-444.123565
4389.384433,444.123565,-8427.050478,-370.102971
4389.384757,518.144159,-8580.269578,-592.164754
4389.385082,962.267725,-8503.660028,-888.247130
4389.385406,444.123565,-8656.879127,-296.082377
4389.385731,592.164754,-8427.050478,-740.205942
4389.386055,518.144159,-8810.098227,-518.144159
4389.386379,518.144159,-8580.269578,-592.164754
4389.386704,666.185348,-8503.660028,-740.205942
4389.387028,666.185348,-8427.050478,-740.205942
4389.387353,666.185348,-8810.098227,-888.247130
4389.387677,518.144159,-8656.879127,-518.144159
4389.388002,296.082377,-8656.879127,-518.144159
4389.388326,666.185348,-8733.488677,-666.185348
4389.388650,296.082377,-8427.050478,-740.205942
4389.388975,444.123565,-8810.098227,-1110.308913
4389.389299,444.123565,-7967.393179,-444.123565
4389.389624,518.144159,-8886.707777,-740.205942
4389.389948,666.185348,-8886.707777,-962.267725
4389.390272,444.123565,-8733.488677,-962.267725
4389.390597,444.123565,-8886.707777,-962.267725
4389.390921,444.123565,-8810.098227,-740.205942
4389.391246,444.123565,-8273.831378,-888.247130
4389.391570,666.185348,-8733.488677,-888.247130
4389.391895,370.102971,-8580.269578,-814.226536
4389.392219,518.144159,-8886.707777,-666.185348
4389.392543,518.144159,-8810.098227,-1036.288319
4389.392868,518.144159,-8427.050478,-666.185348
4389.393192,370.102971,-8810.098227,-592.164754
4389.393517,518.144159,-8810.098227,-222.061783
4389.393841,592.164754,-8733.488677,-296.082377
4389.394166,518.144159,-8580.269578,-814.226536
4389.394490,666.185348,-9039.926876,-518.144159
4389.394814,518.144159,-8427.050478,-518.144159
4389.395139,370.102971,-8656.879127,0.000000
4389.395463,222.061783,-8427.050478,-370.102971
4389.395788,444.123565,-8427.050478,-518.144159
4389.396112,444.123565,-8733.488677,-444.123565
4389.396437,740.205942,-8273.831378,-444.123565
4389.396761,222.061783,-8503.660028,-296.082377
4389.397085,444.123565,-8886.707777,-370.102971
4389.397410,444.123565,-8427.050478,-222.061783
4389.397734,888.247130,-8733.488677,-518.144159
4389.398059,444.123565,-8810.098227,-370.102971
4389.398383,370.102971,-8503.660028,-296.082377
4389.398707,370.102971,-8580.269578,-296.082377
4389.399032,370.102971,-8886.707777,-296.082377
4389.399356,148.041188,-8810.098227,-222.061783
4389.399681,296.082377,-8350.440928,-370.102971
4389.400005,444.123565,-8427.050478,-296.082377
4389.400330,592.164754,-8656.879127,-444.123565
4389.400654,740.205942,-8733.488677,-148.041188
4389.400978,518.144159,-8350.440928,0.000000
4389.401303,444.123565,-8427.050478,-518.144159
4389.401627,296.082377,-8503.660028,-296.082377
4389.401952,296.082377,-8197.221829,-370.102971
4389.402276,74.020594,-8656.879127,-148.041188
4389.402601,222.061783,-8580.269578,-222.061783
4389.402925,444.123565,-8427.050478,-296.082377
4389.403250,296.082377,-8580.269578,-222.061783
4389.403574,444.123565,-8503.660028,-518.144159
4389.403899,148.041188,-8580.269578,0.000000
4389.404223,296.082377,-8656.879127,-148.041188
4389.404547,592.164754,-8503.660028,-592.164754
4389.404872,962.267725,-8656.879127,0.000000
4389.405196,444.123565,-8273.831378,-296.082377
4389.405521,370.102971,-8733.488677,-444.123565
4389.405845,296.082377,-8350.440928,-814.226536
4389.406170,592.164754,-8580.269578,-222.061783
4389.406494,592.164754,-8580.269578,-592.164754
4389.406819,592.164754,-8580.269578,-370.102971
4389.407143,518.144159,-8427.050478,-666.185348
4389.407468,814.226536,-8427.050478,-444.123565
4389.407792,740.205942,-8197.221829,-666.185348
4389.408117,666.185348,-8580.269578,-592.164754
4389.408441,666.185348,-8273.831378,-666.185348
4389.408766,370.102971,-8427.050478,-518.144159
4389.409090,666.185348,-7890.783629,-518.144159
4389.409415,370.102971,-8350.440928,-518.144159
4389.409739,592.164754,-8580.269578,-666.185348
4389.410063,666.185348,-8350.440928,-740.205942
4389.410388,444.123565,-8503.660028,0.000000
4389.410712,592.164754,-8733.488677,-444.123565
4389.411037,592.164754,-8503.660028,-740.205942
4389.411361,444.123565,-8503.660028,-518.144159
4389.411686,518.144159,-8810.098227,-592.164754
4389.412010,222.061783,-8273.831378,-222.061783
4389.412335,370.102971,-8350.440928,-518.144159
4389.412659,370.102971,-8810.098227,-592.164754
4389.412984,296.082377,-8580.269578,-666.185348
4389.413308,592.164754,-8733.488677,-518.144159
4389.413633,370.102971,-8656.879127,-444.123565
4389.413957,222.061783,-8733.488677,-518.144159
4389.414282,370.102971,-8580.269578,-296.082377
4389.414606,296.082377,-8580.269578,-518.144159
4389.414931,296.082377,-8810.098227,-518.144159
4389.415255,222.061783,-8580.269578,-370.102971
4389.415579,296.082377,-8427.050478,-666.185348
4389.415904,296.082377,-8427.050478,-518.144159
4389.416228,148.041188,-8810.098227,-296.082377
4389.416553,370.102971,-8503.660028,-444.123565
4389.416877,222.061783,-8580.269578,-370.102971
4389.417202,370.102971,-8810.098227,-518.144159
4389.417526,370.102971,-7737.564530,0.000000
4389.417851,370.102971,-8656.879127,-74.020594
4389.418175,370.102971,-8810.098227,-444.123565
4389.418500,296.082377,-8580.269578,-296.082377
4389.418824,370.102971,-8580.269578,-148.041188
4389.419149,592.164754,-8197.221829,-444.123565
4389.419473,222.061783,-8886.707777,0.000000
4389.419798,0.000000,-8427.050478,-148.041188
4389.420122,444.123565,-8503.660028,-222.061783
4389.420447,740.205942,-8733.488677,-148.041188
4389.420771,296.082377,-8580.269578,0.000000
4389.421095,74.020594,-8580.269578,0.000000
4389.421420,518.144159,-8810.098227,0.000000
4389.421744,518.144159,-8580.269578,0.000000
4389.422069,296.082377,-8810.098227,-148.041188
4389.422393,592.164754,-8503.660028,0.000000
4389.422718,444.123565,-8503.660028,74.020594
4389.423042,592.164754,-8656.879127,-148.041188
4389.423367,444.123565,-8963.317327,0.000000
4389.423691,444.123565,-8656.879127,0.000000
4389.424016,592.164754,-8656.879127,-148.041188
4389.424340,370.102971,-8580.269578,-222.061783
4389.424665,666.185348,-8963.317327,0.000000
4389.424989,740.205942,-8580.269578,-370.102971
4389.425314,814.226536,-8580.269578,-444.123565
4389.425638,370.102971,-8810.098227,-444.123565
4389.425963,518.144159,-8810.098227,0.000000
4389.426287,518.144159,-8503.660028,-296.082377
4389.426611,444.123565,-8886.707777,-444.123565
4389.426936,370.102971,-8580.269578,-518.144159
4389.427260,444.123565,-8503.660028,-296.082377
4389.427585,518.144159,-8733.488677,-370.102971
4389.427909,296.082377,-8427.050478,-370.102971
4389.428234,444.123565,-8963.317327,-296.082377
4389.428558,444.123565,-8427.050478,-370.102971
4389.428883,518.144159,-8273.831378,-222.061783
4389.429207,666.185348,-8580.269578,-518.144159
4389.429532,592.164754,-8656.879127,-444.123565
4389.429856,296.082377,-8197.221829,-370.102971
4389.430181,444.123565,-8886.707777,-518.144159
4389.430505,444.123565,-8580.269578,-296.082377
4389.430830,444.123565,-8733.488677,-592.164754
4389.431154,518.144159,-8427.050478,-666.185348
4389.431479,518.144159,-8580.269578,-666.185348
4389.431803,148.041188,-8503.660028,-296.082377
4389.432128,148.041188,-8580.269578,-444.123565
4389.432452,592.164754,-8733.488677,-518.144159
4389.432776,444.123565,-8810.098227,-444.123565
4389.433101,740.205942,-9269.755526,-222.061783
4389.433425,592.164754,-8886.707777,-592.164754
4389.433750,444.123565,-8580.269578,-592.164754
4389.434074,296.082377,-8580.269578,-592.164754
4389.434399,444.123565,-8810.098227,-370.102971
4389.434723,518.144159,-8810.098227,-296.082377
4389.435048,444.123565,-8427.050478,-518.144159
4389.435372,444.123565,-8886.707777,-74.020594
4389.435697,296.082377,-8273.831378,-592.164754
4389.436021,-148.041188,-8810.098227,74.020594
4389.436346,370.102971,-8580.269578,0.000000
4389.436670,74.020594,-8350.440928,0.000000
4389.436995,222.061783,-8503.660028,-222.061783
4389.437319,296.082377,-8733.488677,0.000000
4389.437644,370.102971,-8427.050478,0.000000
4389.437968,370.102971,-8503.660028,-222.061783
4389.438292,370.102971,-8503.660028,0.000000
4389.438617,518.144159,-8810.098227,-148.041188
4389.438941,296.082377,-8427.050478,0.000000
4389.439266,370.102971,-8503.660028,0.000000
4389.439590,370.102971,-8733.488677,-296.082377
4389.439915,444.123565,-8656.879127,0.000000
4389.440239,296.082377,-8427.050478,-148.041188
4389.440564,370.102971,-8810.098227,0.000000
4389.440888,222.061783,-8197.221829,-148.041188
4389.441213,592.164754,-8503.660028,-222.061783
4389.441537,518.144159,-8810.098227,-296.082377
4389.441862,518.144159,-8810.098227,-148.041188
4389.442186,666.185348,-8580.269578,-444.123565
4389.442511,518.144159,-8427.050478,0.000000
4389.442835,444.123565,-8427.050478,-592.164754
4389.443160,296.082377,-8580.269578,-370.102971
4389.443484,518.144159,-8580.269578,-148.041188
4389.443808,296.082377,-8503.660028,-370.102971
4389.444133,222.061783,-8963.317327,-222.061783
4389.444457,296.082377,-8580.269578,-370.102971
4389.444782,370.102971,-8733.488677,-296.082377
4389.445106,444.123565,-8733.488677,-222.061783
4389.445431,740.205942,-8733.488677,-370.102971
4389.445755,592.164754,-8810.098227,-370.102971
4389.446080,370.102971,-8580.269578,-222.061783
4389.446404,592.164754,-8733.488677,-444.123565
4389.446729,592.164754,-9039.926876,-370.102971
4389.447053,814.226536,-8350.440928,-222.061783
4389.447378,222.061783,-8733.488677,-370.102971
4389.447702,518.144159,-8733.488677,-296.082377
4389.448027,518.144159,-8656.879127,0.000000
4389.448351,592.164754,-8810.098227,0.000000
4389.448676,518.144159,-8503.660028,-518.144159
4389.449000,296.082377,-8810.098227,0.000000
4389.449324,296.082377,-9116.536426,0.000000
4389.449649,444.123565,-8350.440928,-296.082377
4389.449973,370.102971,-8580.269578,-222.061783
4389.450298,666.185348,-8503.660028,-296.082377
4389.450622,296.082377,-8350.440928,-148.041188
4389.450947,222.061783,-8963.317327,-296.082377
4389.451271,444.123565,-8427.050478,-370.102971
4389.451596,814.226536,-8656.879127,-370.102971
4389.451920,518.144159,-8886.707777,-444.123565
4389.452245,296.082377,-8503.660028,-222.061783
4389.452569,518.144159,-8580.269578,-296.082377
4389.452894,518.144159,-9193.145976,222.061783
4389.453218,296.082377,-8503.660028,-222.061783
4389.453543,444.123565,-8427.050478,-222.061783
4389.453867,592.164754,-8503.660028,-222.061783
4389.454192,222.061783,-8427.050478,0.000000
4389.454516,0.000000,-8733.488677,-518.144159
4389.454840,518.144159,-8350.440928,0.000000
4389.455165,148.041188,-8503.660028,-296.082377
4389.455489,296.082377,-8656.879127,0.000000
4389.455814,444.123565,-7890.783629,0.000000
4389.456138,370.102971,-8810.098227,0.000000
4389.456463,444.123565,-8197.221829,-222.061783
4389.456787,370.102971,-8656.879127,0.000000
4389.457112,592.164754,-9193.145976,-222.061783
4389.457436,444.123565,-8350.440928,0.000000
4389.457761,444.123565,-8273.831378,-222.061783
4389.458085,444.123565,-8350.440928,-296.082377
4389.458410,444.123565,-8503.660028,-444.123565
4389.458734,814.226536,-8273.831378,-518.144159
4389.459059,518.144159,-8273.831378,-518.144159
4389.459383,444.123565,-8503.660028,-296.082377
4389.459708,370.102971,-8886.707777,-370.102971
4389.460032,370.102971,-8273.831378,222.061783
4389.460357,296.082377,-8580.269578,-370.102971
4389.460681,592.164754,-8503.660028,-296.082377
4389.461005,370.102971,-8273.831378,-296.082377
4389.461330,370.102971,-8427.050478,-370.102971
4389.461654,370.102971,-8350.440928,-592.164754
4389.461979,518.144159,-8503.660028,-370.102971
4389.462303,518.144159,-8503.660028,-592.164754
4389.462628,444.123565,-8580.269578,-370.102971
4389.462952,888.247130,-8656.879127,-592.164754
4389.463277,518.144159,-8886.707777,-518.144159
4389.463601,370.102971,-8580.269578,-592.164754
4389.463926,592.164754,-8733.488677,-370.102971
4389.464250,1110.308913,-9039.926876,-296.082377
4389.464575,296.082377,-8273.831378,-370.102971
4389.464899,444.123565,-8580.269578,-518.144159
4389.465224,518.144159,-8656.879127,-222.061783
4389.465548,518.144159,-8810.098227,-296.082377
4389.465873,666.185348,-8886.707777,-592.164754
4389.466197,444.123565,-8963.317327,-222.061783
4389.466521,222.061783,-8656.879127,-148.041188
4389.466846,0.000000,-8886.707777,-148.041188
4389.467170,740.205942,-8963.317327,-518.144159
4389.467495,592.164754,-8656.879127,-370.102971
4389.467819,444.123565,-8580.269578,0.000000
4389.468144,222.061783,-8810.098227,-296.082377
4389.468468,518.144159,-9039.926876,296.082377
4389.468793,444.123565,-8733.488677,-370.102971
4389.469117,296.082377,-8580.269578,-518.144159
4389.469442,518.144159,-8810.098227,-296.082377
4389.469766,518.144159,-8810.098227,-296.082377
4389.470091,296.082377,-9193.145976,-296.082377
4389.470415,296.082377,-8580.269578,-222.061783
4389.470740,370.102971,-8656.879127,-148.041188
4389.471064,518.144159,-8810.098227,-296.082377
4389.471389,370.102971,-8656.879127,370.102971
4389.471713,222.061783,-8733.488677,-370.102971
4389.472037,370.102971,-8350.440928,-296.082377
4389.472362,148.041188,-8273.831378,0.000000
4389.472686,74.020594,-8810.098227,-222.061783
4389.473011,148.041188,-8503.660028,0.000000
4389.473335,0.000000,-8427.050478,222.061783
4389.473660,370.102971,-8580.269578,0.000000
4389.473984,444.123565,-8427.050478,74.020594
4389.474309,444.123565,-8427.050478,0.000000
4389.474633,518.144159,-8580.269578,0.000000
4389.474958,370.102971,-8427.050478,0.000000
4389.475282,148.041188,-8580.269578,0.000000
4389.475607,666.185348,-8886.707777,0.000000
4389.475931,518.144159,-8733.488677,-222.061783
4389.476256,518.144159,-8580.269578,-222.061783
4389.476580,518.144159,-8273.831378,0.000000
4389.476905,444.123565,-8810.098227,0.000000
4389.477229,518.144159,-8580.269578,-222.061783
4389.477553,444.123565,-8350.440928,-370.102971
4389.477878,518.144159,-8503.660028,-148.041188
4389.478202,592.164754,-8273.831378,-148.041188
4389.478527,444.123565,-8656.879127,-148.041188
4389.478851,222.061783,-8733.488677,-296.082377
4389.479176,518.144159,-8350.440928,-592.164754
4389.479500,444.123565,-8580.269578,-592.164754
4389.479825,814.226536,-8733.488677,-518.144159
4389.480149,444.123565,-8427.050478,-444.123565
4389.480474,518.144159,-8733.488677,-592.164754
4389.480798,444.123565,-8427.050478,-518.144159
4389.481123,814.226536,-8810.098227,-592.164754
4389.481447,666.185348,-8503.660028,-592.164754
4389.481772,518.144159,-8580.269578,-592.164754
4389.482096,222.061783,-8503.660028,-518.144159
4389.482421,666.185348,-8503.660028,-592.164754
4389.482745,740.205942,-8427.050478,-370.102971
4389.483069,592.164754,-8733.488677,-592.164754
4389.483394,148.041188,-8580.269578,-518.144159
4389.483718,444.123565,-8656.879127,-592.164754
4389.484043,444.123565,-8197.221829,-222.061783
4389.484367,370.102971,-8427.050478,-518.144159
4389.484692,592.164754,-8886.707777,-592.164754
4389.485016,518.144159,-8733.488677,-740.205942
4389.485341,518.144159,-8656.879127,-444.123565
4389.485665,74.020594,-8733.488677,-666.185348
4389.485990,444.123565,-8656.879127,-444.123565
4389.486314,666.185348,-8580.269578,-814.226536
4389.486639,592.164754,-8733.488677,-592.164754
4389.486963,296.082377,-8427.050478,-740.205942
4389.487288,370.102971,-8733.488677,-592.164754
4389.487612,370.102971,-8733.488677,-444.123565
4389.487937,296.082377,-8656.879127,-444.123565
4389.488261,518.144159,-8886.707777,-444.123565
4389.488586,592.164754,-8427.050478,-370.102971
4389.488910,592.164754,-8656.879127,-370.102971
4389.489234,222.061783,-8656.879127,-666.185348
4389.489559,296.082377,-8733.488677,-370.102971
4389.489883,296.082377,-8350.440928,-592.164754
4389.490208,296.082377,-8810.098227,-74.020594
4389.490532,74.020594,-8733.488677,-296.082377
4389.490857,370.102971,-8963.317327,0.000000
4389.491181,518.144159,-8886.707777,-814.226536
4389.491506,444.123565,-8580.269578,0.000000
4389.491830,222.061783,-8733.488677,0.000000
4389.492155,518.144159,-8427.050478,0.000000
4389.492479,370.102971,-7737.564530,0.000000
4389.492804,592.164754,-8733.488677,0.000000
4389.493128,740.205942,-8503.660028,-296.082377
4389.493453,444.123565,-8963.317327,-296.082377
4389.493777,370.102971,-8656.879127,0.000000
4389.494102,518.144159,-8580.269578,-222.061783
4389.494426,148.041188,-8427.050478,-74.020594
4389.494750,222.061783,-8427.050478,148.041188
4389.495075,518.144159,-8580.269578,-444.123565
4389.495399,666.185348,-9422.974625,0.000000
4389.495724,444.123565,-8273.831378,-370.102971
4389.496048,296.082377,-8350.440928,-370.102971
4389.496373,370.102971,-8580.269578,-222.061783
4389.496697,666.185348,-8580.269578,-444.123565
4389.497022,370.102971,-8427.050478,-370.102971
4389.497346,518.144159,-8580.269578,-370.102971
4389.497671,296.082377,-8503.660028,-518.144159
4389.497995,296.082377,-8580.269578,-518.144159
4389.498320,666.185348,-8427.050478,-592.164754
4389.498644,740.205942,-8580.269578,-592.164754
4389.498969,592.164754,-8580.269578,-666.185348
4389.499293,814.226536,-8656.879127,-444.123565
4389.499618,518.144159,-8427.050478,-888.247130
4389.499942,518.144159,-8656.879127,-370.102971
4389.500266,518.144159,-8733.488677,-888.247130
4389.500591,814.226536,-8656.879127,-814.226536
4389.500915,296.082377,-8886.707777,-296.082377
4389.501240,444.123565,-8503.660028,-740.205942
4389.501564,518.144159,-8427.050478,-592.164754
4389.501889,518.144159,-8580.269578,-518.144159
4389.502213,518.144159,-8580.269578,-962.267725
4389.502538,666.185348,-8656.879127,-740.205942
4389.502862,444.123565,-8427.050478,-666.185348
4389.503186,296.082377,-8503.660028,-740.205942
4389.503511,444.123565,-8810.098227,-370.102971
4389.503835,592.164754,-9806.022374,-592.164754
4389.504159,444.123565,-8733.488677,-666.185348
4389.504484,222.061783,-8580.269578,-666.185348
4389.504808,444.123565,-8810.098227,-666.185348
4389.505132,222.061783,-8580.269578,-740.205942
4389.505457,370.102971,-8886.707777,-814.226536
4389.505781,518.144159,-8733.488677,-814.226536
4389.506105,666.185348,-8427.050478,-814.226536
4389.506430,296.082377,-8580.269578,-592.164754
4389.506754,0.000000,-9269.755526,-370.102971
4389.507078,222.061783,-8427.050478,-444.123565
4389.507403,518.144159,-8503.660028,-740.205942
4389.507727,296.082377,-8580.269578,-666.185348
4389.508051,222.061783,-9269.755526,-444.123565
4389.508376,222.061783,-8580.269578,-518.144159
4389.508700,296.082377,-8503.660028,-666.185348
4389.509024,296.082377,-8656.879127,-592.164754
4389.509349,518.144159,-8886.707777,-148.041188
4389.509673,444.123565,-8273.831378,-518.144159
4389.509997,296.082377,-8810.098227,0.000000
4389.510322,296.082377,-8810.098227,-296.082377
4389.510646,592.164754,-8656.879127,-222.061783
4389.510970,296.082377,-8350.440928,-370.102971
4389.511295,444.123565,-8886.707777,0.000000
4389.511619,222.061783,-8427.050478,-444.123565
4389.511943,296.082377,-8580.269578,-148.041188
4389.512268,296.082377,-8580.269578,-444.123565
4389.512592,370.102971,-8656.879127,-222.061783
4389.512916,370.102971,-8350.440928,-370.102971
4389.513241,518.144159,-8503.660028,-296.082377
4389.513565,222.061783,-8656.879127,-444.123565
4389.513889,740.205942,-8580.269578,-370.102971
4389.514214,666.185348,-8503.660028,-370.102971
4389.514538,518.144159,-9039.926876,-592.164754
4389.514862,370.102971,-8427.050478,-592.164754
4389.515187,370.102971,-8580.269578,-666.185348
4389.515511,296.082377,-8273.831378,-296.082377
4389.515835,148.041188,-8503.660028,-444.123565
4389.516160,296.082377,-8580.269578,-148.041188
4389.516484,740.205942,-8350.440928,-370.102971
4389.516808,814.226536,-8656.879127,-296.082377
4389.517133,666.185348,-8656.879127,-370.102971
4389.517457,592.164754,-8273.831378,-444.123565
4389.517781,592.164754,-8580.269578,-444.123565
4389.518106,518.144159,-8656.879127,-518.144159
4389.518430,370.102971,-8733.488677,-370.102971
4389.518754,444.123565,-8580.269578,-222.061783
4389.519079,444.123565,-8733.488677,-296.082377
4389.519403,666.185348,-9193.145976,-370.102971
4389.519727,444.123565,-8886.707777,-296.082377
4389.520052,444.123565,-8350.440928,0.000000
4389.520376,370.102971,-8503.660028,-296.082377
4389.520700,296.082377,-8656.879127,-74.020594
4389.521025,592.164754,-8350.440928,-296.082377
4389.521349,370.102971,-8810.098227,-370.102971
4389.521673,518.144159,-8963.317327,-222.061783
4389.521998,296.082377,-8656.879127,-222.061783
4389.522322,1036.288319,-8503.660028,-370.102971
4389.522646,148.041188,-8350.440928,-518.144159
4389.522971,666.185348,-8963.317327,-222.061783
4389.523295,370.102971,-8580.269578,-444.123565
4389.523619,518.144159,-8580.269578,0.000000
4389.523944,518.144159,-8580.269578,-592.164754
4389.524268,296.082377,-8580.269578,-222.061783
4389.524592,592.164754,-8427.050478,-370.102971
4389.524917,666.185348,-8580.269578,-592.164754
4389.525241,518.144159,-9039.926876,0.000000
4389.525565,444.123565,-8427.050478,-222.061783
4389.525890,296.082377,-8963.317327,-296.082377
4389.526214,74.020594,-8580.269578,-370.102971
4389.526538,740.205942,-9039.926876,-296.082377
4389.526863,444.123565,-8197.221829,-222.061783
4389.527187,296.082377,-8810.098227,0.000000
4389.527511,518.144159,-8580.269578,-518.144159
4389.527836,444.123565,-8350.440928,-296.082377
4389.528160,444.123565,-8656.879127,-370.102971
4389.528484,370.102971,-8580.269578,-370.102971
4389.528809,666.185348,-8656.879127,-222.061783
4389.529133,296.082377,-8503.660028,-296.082377
4389.529457,518.144159,-8656.879127,0.000000
4389.529782,296.082377,-8427.050478,-444.123565
4389.530106,518.144159,-8580.269578,-370.102971
4389.530430,370.102971,-8350.440928,-444.123565
4389.530755,518.144159,-7890.783629,0.000000
4389.531079,296.082377,-8273.831378,-592.164754
4389.531403,370.102971,-8273.831378,-666.185348
4389.531728,370.102971,-8580.269578,-370.102971
4389.532052,370.102971,-8503.660028,-666.185348
4389.532376,222.061783,-8580.269578,-518.144159
4389.532701,370.102971,-8580.269578,-666.185348
4389.533025,592.164754,-8580.269578,-666.185348
4389.533349,222.061783,-8350.440928,-1036.288319
4389.533674,444.123565,-8120.612279,-592.164754
4389.533998,592.164754,-8120.612279,-518.144159
4389.534322,592.164754,-8503.660028,-518.144159
4389.534647,370.102971,-8580.269578,-740.205942
4389.534971,518.144159,-8656.879127,-370.102971
4389.535295,296.082377,-8656.879127,-666.185348
4389.535620,592.164754,-8656.879127,-592.164754
4389.535944,148.041188,-8503.660028,-592.164754
4389.536268,518.144159,-8810.098227,-518.144159
4389.536593,666.185348,-8427.050478,-962.267725
4389.536917,444.123565,-8503.660028,-592.164754
4389.537241,518.144159,-8580.269578,-370.102971
4389.537566,592.164754,-8580.269578,-444.123565
4389.537890,148.041188,-8427.050478,0.000000
4389.538214,296.082377,-8656.879127,-444.123565
4389.538539,592.164754,-8580.269578,-518.144159
4389.538863,518.144159,-8733.488677,-740.205942
4389.539187,518.144159,-8580.269578,0.000000
4389.539512,592.164754,-8656.879127,-592.164754
4389.539836,518.144159,-8886.707777,-222.061783
4389.540160,444.123565,-8503.660028,-444.123565
4389.540485,592.164754,-8580.269578,-444.123565
4389.540809,518.144159,-8580.269578,-666.185348
4389.541133,740.205942,-8580.269578,-148.041188
4389.541458,370.102971,-8580.269578,-296.082377
4389.541782,370.102971,-8580.269578,-222.061783
4389.542106,888.247130,-9116.536426,-296.082377
4389.542430,148.041188,-8580.269578,0.000000
4389.542755,370.102971,-8810.098227,-296.082377
4389.543079,222.061783,-8656.879127,0.000000
4389.543403,370.102971,-8963.317327,74.020594
4389.543728,296.082377,-8120.612279,-148.041188
4389.544052,444.123565,-8886.707777,0.000000
4389.544376,222.061783,-8044.002729,-222.061783
4389.544701,518.144159,-8580.269578,0.000000
4389.545025,592.164754,-8580.269578,-222.061783
4389.545349,592.164754,-8350.440928,0.000000
4389.545674,518.144159,-8810.098227,0.000000
4389.545998,370.102971,-8810.098227,0.000000
4389.546322,444.123565,-8580.269578,74.020594
4389.546647,518.144159,-8580.269578,0.000000
4389.546971,592.164754,-8656.879127,0.000000
4389.547295,148.041188,-8733.488677,0.000000
4389.547620,592.164754,-8656.879127,0.000000
4389.547944,666.185348,-8273.831378,74.020594
4389.548268,518.144159,-8350.440928,0.000000
4389.548593,296.082377,-8503.660028,0.000000
4389.548917,370.102971,-8427.050478,-148.041188
4389.549241,592.164754,-9039.926876,0.000000
4389.549566,222.061783,-8503.660028,0.000000
4389.549890,444.123565,-8656.879127,-222.061783
4389.550214,592.164754,-8580.269578,0.000000
4389.550539,962.267725,-8350.440928,-222.061783
4389.550863,666.185348,-8810.098227,-370.102971
4389.551187,518.144159,-8580.269578,-296.082377
4389.551512,370.102971,-8350.440928,-296.082377
4389.551836,740.205942,-8733.488677,-296.082377
4389.552160,518.144159,-8427.050478,-222.061783
4389.552485,518.144159,-8580.269578,-296.082377
4389.552809,444.123565,-8503.660028,-518.144159
4389.553133,370.102971,-8733.488677,0.000000
4389.553458,444.123565,-8350.440928,-740.205942
4389.553782,222.061783,-8580.269578,-296.082377
4389.554106,444.123565,-8427.050478,-296.082377
4389.554431,592.164754,-8656.879127,-370.102971
4389.554755,518.144159,-7890.783629,0.000000
4389.555079,148.041188,-8503.660028,0.000000
4389.555404,148.041188,-8580.269578,-444.123565
4389.555728,222.061783,-8580.269578,-296.082377
4389.556052,444.123565,-8580.269578,-370.102971
4389.556377,444.123565,-8120.612279,-370.102971
4389.556701,296.082377,-8580.269578,-444.123565
4389.557025,296.082377,-8733.488677,-444.123565
4389.557350,592.164754,-8810.098227,-444.123565
4389.557674,592.164754,-8273.831378,-222.061783
4389.557998,444.123565,-8733.488677,-518.144159
4389.558323,666.185348,-8350.440928,-518.144159
4389.558647,370.102971,-8273.831378,-370.102971
4389.558971,666.185348,-8886.707777,-222.061783
4389.559296,518.144159,-8656.879127,-518.144159
4389.559620,370.102971,-8656.879127,-518.144159
4389.559944,148.041188,-8273.831378,-444.123565
4389.560269,148.041188,-8656.879127,-370.102971
4389.560593,296.082377,-8810.098227,-296.082377
4389.560917,296.082377,-8503.660028,-296.082377
4389.561242,370.102971,-8503.660028,-444.123565
4389.561566,666.185348,-8810.098227,-296.082377
4389.561890,518.144159,-8810.098227,0.000000
4389.562215,296.082377,-8580.269578,-148.041188
4389.562539,296.082377,-8350.440928,-370.102971
4389.562863,592.164754,-8580.269578,0.000000
4389.563188,518.144159,-8810.098227,-222.061783
4389.563512,222.061783,-8503.660028,0.000000
4389.563836,222.061783,-8656.879127,74.020594
4389.564161,370.102971,-8503.660028,0.000000
4389.564485,518.144159,-8656.879127,0.000000
4389.564809,148.041188,-8350.440928,-148.041188
4389.565134,666.185348,-8580.269578,0.000000
4389.565458,296.082377,-8580.269578,-296.082377
4389.565782,370.102971,-8733.488677,0.000000
4389.566107,444.123565,-8503.660028,0.000000
4389.566431,148.041188,-8733.488677,-222.061783
4389.566755,222.061783,-8733.488677,-370.102971
4389.567080,444.123565,-8350.440928,0.000000
4389.567404,296.082377,-8427.050478,-296.082377
4389.567728,518.144159,-8580.269578,0.000000
4389.568053,296.082377,-8350.440928,-296.082377
4389.568377,592.164754,-9039.926876,-370.102971
4389.568701,666.185348,-8197.221829,-222.061783
4389.569026,592.164754,-8810.098227,-592.164754
4389.569350,444.123565,-8580.269578,-370.102971
4389.569674,518.144159,-8656.879127,0.000000
4389.569999,518.144159,-8656.879127,-444.123565
4389.570323,444.123565,-8120.612279,-296.082377
4389.570647,592.164754,-8427.050478,-370.102971
4389.570972,444.123565,-8580.269578,-296.082377
4389.571296,222.061783,-8580.269578,-222.061783
4389.571620,222.061783,-8503.660028,-370.102971
4389.571945,592.164754,-8810.098227,-444.123565
4389.572269,444.123565,-8427.050478,-222.061783
4389.572593,518.144159,-8580.269578,-222.061783
4389.572918,444.123565,-8733.488677,0.000000
4389.573242,592.164754,-8503.660028,-148.041188
4389.573566,592.164754,-8656.879127,-444.123565
4389.573891,148.041188,-8656.879127,-296.082377
4389.574215,370.102971,-8810.098227,-222.061783
4389.574539,370.102971,-8886.707777,-222.061783
4389.574864,444.123565,-8580.269578,-222.061783
4389.575188,592.164754,-8810.098227,-518.144159
4389.575512,592.164754,-8733.488677,-444.123565
4389.575837,444.123565,-8733.488677,-370.102971
4389.576161,148.041188,-8427.050478,-444.123565
4389.576485,518.144159,-8503.660028,74.020594
4389.576810,666.185348,-8810.098227,-518.144159
4389.577134,592.164754,-8733.488677,-444.123565
4389.577458,444.123565,-8273.831378,-296.082377
4389.577783,296.082377,-8503.660028,-222.061783
4389.578107,296.082377,-8580.269578,-370.102971
4389.578431,222.061783,-8273.831378,0.000000
4389.578756,148.041188,-8886.707777,-74.020594
4389.579080,74.020594,-8350.440928,-148.041188
4389.579404,222.061783,-8580.269578,0.000000
4389.579729,74.020594,-8810.098227,-222.061783
4389.580053,888.247130,-8656.879127,-370.102971
4389.580377,740.205942,-8810.098227,-518.144159
4389.580702,296.082377,-8733.488677,0.000000
4389.581026,222.061783,-8503.660028,0.000000
4389.581350,296.082377,-8733.488677,-222.061783
4389.581675,222.061783,-8963.317327,-518.144159
4389.581999,444.123565,-8580.269578,-148.041188
4389.582323,222.061783,-8580.269578,-222.061783
4389.582648,370.102971,-8273.831378,0.000000
4389.582972,222.061783,-8580.269578,-296.082377
4389.583296,444.123565,-8580.269578,-296.082377
4389.583621,444.123565,-8503.660028,-296.082377
4389.583945,444.123565,-8580.269578,-444.123565
4389.584269,222.061783,-8810.098227,-592.164754
4389.584594,0.000000,-8886.707777,0.000000
4389.584918,222.061783,-8886.707777,-370.102971
4389.585242,296.082377,-8810.098227,-148.041188
4389.585567,518.144159,-8886.707777,-666.185348
4389.585891,0.000000,-9116.536426,-222.061783
4389.586215,740.205942,-8503.660028,-592.164754
4389.586540,592.164754,-8503.660028,-592.164754
4389.586864,592.164754,-8503.660028,-444.123565
4389.587188,1110.308913,-8733.488677,-518.144159
4389.587513,888.247130,-8733.488677,-592.164754
4389.587837,444.123565,-8580.269578,-296.082377
4389.588161,222.061783,-8503.660028,-518.144159
4389.588486,296.082377,-8963.317327,-370.102971
4389.588810,222.061783,-8197.221829,0.000000
4389.589134,444.123565,-8733.488677,-518.144159
4389.589459,666.185348,-8503.660028,-370.102971
4389.589783,740.205942,-8580.269578,-518.144159
4389.590107,518.144159,-8580.269578,-296.082377
4389.590432,370.102971,-8427.050478,-592.164754
4389.590756,592.164754,-8350.440928,-666.185348
4389.591080,592.164754,-8503.660028,-666.185348
4389.591405,370.102971,-8580.269578,-518.144159
4389.591729,592.164754,-8810.098227,-592.164754
4389.592053,370.102971,-8580.269578,-222.061783
4389.592378,222.061783,-8810.098227,-370.102971
4389.592702,518.144159,-8733.488677,-370.102971
4389.593026,814.226536,-8350.440928,-666.185348
4389.593350,296.082377,-8580.269578,-370.102971
4389.593675,444.123565,-8963.317327,-592.164754
4389.593999,444.123565,-8503.660028,-370.102971
4389.594323,518.144159,-9116.536426,-370.102971
4389.594648,666.185348,-8810.098227,-370.102971
4389.594972,296.082377,-8810.098227,-444.123565
4389.595296,444.123565,-8733.488677,-370.102971
4389.595621,148.041188,-8656.879127,-296.082377
4389.595945,0.000000,-8886.707777,-518.144159
4389.596269,296.082377,-8810.098227,-222.061783
4389.596594,222.061783,-8197.221829,-148.041188
4389.596918,370.102971,-8886.707777,-148.041188
4389.597242,74.020594,-9039.926876,222.061783
4389.597567,370.102971,-8580.269578,-296.082377
4389.597891,518.144159,-8733.488677,-148.041188
4389.598215,296.082377,-8886.707777,-296.082377
4389.598540,296.082377,-9116.536426,0.000000
4389.598864,444.123565,-8733.488677,148.041188
4389.599188,370.102971,-8733.488677,-222.061783
4389.599513,296.082377,-8656.879127,0.000000
4389.599837,518.144159,-8427.050478,-222.061783
4389.600161,444.123565,-8656.879127,0.000000
4389.600486,296.082377,-8350.440928,-148.041188
4389.600810,592.164754,-8350.440928,-222.061783
4389.601134,740.205942,-8656.879127,-518.144159
4389.601459,296.082377,-8656.879127,-296.082377
4389.601783,518.144159,-8656.879127,-148.041188
4389.602107,370.102971,-8733.488677,-518.144159
4389.602432,222.061783,-8963.317327,0.000000
4389.602756,296.082377,-8427.050478,-444.123565
4389.603080,222.061783,-8503.660028,-518.144159
4389.603405,444.123565,-8503.660028,-370.102971
4389.603729,592.164754,-8503.660028,-592.164754
4389.604053,592.164754,-8733.488677,-518.144159
4389.604378,666.185348,-7890.783629,-518.144159
4389.604702,592.164754,-8580.269578,-518.144159
4389.605026,814.226536,-8427.050478,-740.205942
4389.605351,444.123565,-8580.269578,-444.123565
4389.605675,592.164754,-9039.926876,0.000000
4389.605999,518.144159,-8886.707777,-296.082377
4389.606324,444.123565,-8580.269578,-444.123565
4389.606648,518.144159,-8886.707777,-666.185348
4389.606972,518.144159,-8656.879127,-592.164754
4389.607297,222.061783,-8503.660028,-592.164754
4389.607621,370.102971,-8580.269578,-370.102971
4389.607945,592.164754,-8580.269578,-518.144159
4389.608270,518.144159,-8503.660028,-518.144159
4389.608594,888.247130,-8503.660028,-296.082377
4389.608918,370.102971,-8810.098227,-296.082377
4389.609243,222.061783,-8350.440928,-296.082377
4389.609567,370.102971,-8656.879127,-222.061783
4389.609891,444.123565,-8886.707777,0.000000
4389.610216,296.082377,-8656.879127,-370.102971
4389.610540,370.102971,-8503.660028,-444.123565
4389.610864,222.061783,-8656.879127,-444.123565
4389.611189,370.102971,-8580.269578,-518.144159
4389.611513,518.144159,-8503.660028,-370.102971
4389.611837,518.144159,-8810.098227,-740.205942
4389.612162,592.164754,-8810.098227,-518.144159
4389.612486,370.102971,-8503.660028,-444.123565
4389.612810,444.123565,-8810.098227,0.000000
4389.613135,222.061783,-8580.269578,-518.144159
4389.613459,222.061783,-8580.269578,-518.144159
4389.613783,370.102971,-8580.269578,-370.102971
4389.614108,74.020594,-8350.440928,-222.061783
4389.614432,148.041188,-8656.879127,-370.102971
4389.614756,296.082377,-8197.221829,-370.102971
4389.615081,444.123565,-8580.269578,-222.061783
4389.615405,296.082377,-8656.879127,-370.102971
4389.615729,444.123565,-8427.050478,-148.041188
4389.616054,370.102971,-8503.660028,-148.041188
4389.616378,370.102971,-8580.269578,0.000000
4389.616702,296.082377,-8427.050478,-222.061783
4389.617027,962.267725,-9193.145976,-370.102971
4389.617351,592.164754,-8503.660028,-370.102971
4389.617675,222.061783,-8197.221829,-296.082377
4389.618000,444.123565,-8580.269578,-296.082377
4389.618324,222.061783,-8273.831378,-222.061783
4389.618648,370.102971,-8427.050478,-444.123565
4389.618972,370.102971,-8427.050478,-370.102971
4389.619297,592.164754,-8810.098227,-296.082377
4389.619621,444.123565,-8656.879127,-296.082377
4389.619945,296.082377,-8503.660028,-370.102971
4389.620270,518.144159,-8503.660028,-370.102971
4389.620594,444.123565,-8810.098227,-222.061783
4389.620918,296.082377,-8273.831378,-296.082377
4389.621243,222.061783,-8656.879127,0.000000
4389.621567,370.102971,-8656.879127,-370.102971
4389.621891,592.164754,-8350.440928,-370.102971
4389.622216,444.123565,-8503.660028,-518.144159
4389.622540,592.164754,-8503.660028,-296.082377
4389.622864,518.144159,-8503.660028,-296.082377
4389.623189,518.144159,-8503.660028,-518.144159
4389.623513,814.226536,-8656.879127,-518.144159
4389.623837,740.205942,-8503.660028,-666.185348
4389.624162,888.247130,-8503.660028,-222.061783
4389.624486,296.082377,-8350.440928,-444.123565
4389.624810,666.185348,-8656.879127,-666.185348
4389.625135,296.082377,-8503.660028,-518.144159
4389.625459,740.205942,-8503.660028,-296.082377
4389.625783,518.144159,-8963.317327,-814.226536
4389.626108,370.102971,-8503.660028,-296.082377
4389.626432,444.123565,-8503.660028,-666.185348
4389.626756,296.082377,-8580.269578,-370.102971
4389.627081,592.164754,-8656.879127,-148.041188
4389.627405,370.102971,-8733.488677,-592.164754
4389.627729,962.267725,-8580.269578,-518.144159
4389.628054,518.144159,-8503.660028,-444.123565
4389.628378,592.164754,-8810.098227,-888.247130
4389.628702,222.061783,-8273.831378,-592.164754
4389.629027,518.144159,-8656.879127,-740.205942
4389.629351,666.185348,-8580.269578,-666.185348
4389.629675,444.123565,-8120.612279,-370.102971
4389.630000,666.185348,-8810.098227,-666.185348
4389.630324,444.123565,-8580.269578,-370.102971
4389.630648,592.164754,-8656.879127,-444.123565
4389.630973,296.082377,-8656.879127,-518.144159
4389.631297,296.082377,-8580.269578,-222.061783
4389.631621,370.102971,-8656.879127,-370.102971
4389.631946,148.041188,-8733.488677,-222.061783
4389.632270,370.102971,-8580.269578,-222.061783
4389.632594,592.164754,-8197.221829,0.000000
4389.632919,518.144159,-8580.269578,-222.061783
4389.633243,370.102971,-8427.050478,-148.041188
4389.633567,222.061783,-8656.879127,0.000000
4389.633892,370.102971,-8733.488677,-222.061783
4389.634216,518.144159,-8427.050478,-296.082377
4389.634540,222.061783,-8810.098227,-74.020594
4389.634865,296.082377,-8197.221829,148.041188
4389.635189,370.102971,-8810.098227,-148.041188
4389.635513,0.000000,-8503.660028,-296.082377
4389.635838,370.102971,-8427.050478,-222.061783
4389.636162,592.164754,-8580.269578,-148.041188
4389.636486,444.123565,-8733.488677,-518.144159
4389.636811,444.123565,-8656.879127,-592.164754
4389.637135,222.061783,-8580.269578,-296.082377
4389.637459,222.061783,-8503.660028,-148.041188
4389.637784,222.061783,-8350.440928,-296.082377
4389.638108,592.164754,-8503.660028,-222.061783
4389.638432,370.102971,-8197.221829,-592.164754
4389.638757,592.164754,-8810.098227,-666.185348
4389.639081,518.144159,-8427.050478,-518.144159
4389.639405,592.164754,-8503.660028,-444.123565
4389.639729,444.123565,-8886.707777,-444.123565
4389.640054,444.123565,-8427.050478,-222.061783
4389.640378,444.123565,-8427.050478,-370.102971
4389.640702,444.123565,-8580.269578,-222.061783
4389.641027,518.144159,-8886.707777,-814.226536
4389.641351,592.164754,-8503.660028,-444.123565
4389.641675,444.123565,-8273.831378,-296.082377
4389.642000,222.061783,-8580.269578,0.000000
4389.642324,222.061783,-8886.707777,-370.102971
4389.642648,222.061783,-8503.660028,-518.144159
4389.642973,370.102971,-8580.269578,-444.123565
4389.643297,444.123565,-8656.879127,-444.123565
4389.643621,518.144159,-8810.098227,-296.082377
4389.643946,0.000000,-8580.269578,222.061783
4389.644270,444.123565,-8580.269578,-296.082377
4389.644594,518.144159,-8733.488677,-592.164754
4389.644919,518.144159,-8886.707777,-370.102971
4389.645243,518.144159,-8886.707777,-74.020594
4389.645567,296.082377,-8273.831378,-592.164754
4389.645892,444.123565,-8886.707777,-370.102971
4389.646216,518.144159,-8810.098227,-518.144159
4389.646540,518.144159,-8886.707777,-592.164754
4389.646865,296.082377,-8350.440928,-370.102971
4389.647189,370.102971,-8503.660028,-370.102971
4389.647513,444.123565,-9039.926876,-370.102971
4389.647838,222.061783,-8503.660028,-444.123565
4389.648162,74.020594,-9576.193725,0.000000
4389.648486,222.061783,-8886.707777,-370.102971
4389.648811,296.082377,-8427.050478,0.000000
4389.649135,148.041188,-8656.879127,-222.061783
4389.649459,518.144159,-8580.269578,-370.102971
4389.649784,74.020594,-8503.660028,-222.061783
4389.650108,518.144159,-8656.879127,0.000000
4389.650432,444.123565,-8350.440928,-148.041188
4389.650757,370.102971,-8810.098227,-296.082377
4389.651081,296.082377,-8503.660028,-296.082377
4389.651405,370.102971,-8656.879127,0.000000
4389.651730,518.144159,-8886.707777,-148.041188
4389.652054,370.102971,-8350.440928,0.000000
4389.652378,444.123565,-8427.050478,-222.061783
4389.652703,370.102971,-8580.269578,-370.102971
4389.653027,444.123565,-8580.269578,-296.082377
4389.653351,370.102971,-8580.269578,-222.061783
4389.653676,444.123565,-8810.098227,-370.102971
4389.654000,444.123565,-8733.488677,0.000000
4389.654324,222.061783,-8503.660028,-222.061783
4389.654649,444.123565,-8427.050478,-222.061783
4389.654973,296.082377,-8350.440928,-296.082377
4389.655297,74.020594,-8427.050478,0.000000
4389.655622,592.164754,-8273.831378,-148.041188
4389.655946,296.082377,-8427.050478,-296.082377
4389.656270,296.082377,-8580.269578,-370.102971
4389.656595,148.041188,-8350.440928,-74.020594
4389.656919,370.102971,-8580.269578,-222.061783
4389.657243,592.164754,-8656.879127,-666.185348
4389.657568,296.082377,-8350.440928,0.000000
4389.657892,296.082377,-8580.269578,-370.102971
4389.658216,518.144159,-8427.050478,0.000000
4389.658541,444.123565,-8580.269578,-444.123565
4389.658865,666.185348,-8886.707777,-592.164754
4389.659189,444.123565,-8350.440928,-296.082377
4389.659513,148.041188,-7890.783629,-222.061783
4389.659838,222.061783,-8350.440928,-444.123565
4389.660162,296.082377,-8580.269578,-296.082377
4389.660486,296.082377,-8350.440928,-444.123565
4389.660811,148.041188,-8810.098227,-222.061783
4389.661135,370.102971,-8580.269578,-222.061783
4389.661459,370.102971,-8656.879127,-74.020594
4389.661784,370.102971,-8503.660028,-296.082377
4389.662108,592.164754,-8733.488677,-74.020594
4389.662432,518.144159,-8503.660028,-518.144159
4389.662757,444.123565,-8580.269578,-222.061783
4389.663081,296.082377,-8580.269578,-370.102971
4389.663405,518.144159,-8503.660028,-518.144159
4389.663730,222.061783,-8273.831378,0.000000
4389.664054,444.123565,-8886.707777,-296.082377
4389.664378,222.061783,-8656.879127,-148.041188
4389.664703,222.061783,-8810.098227,-148.041188
4389.665027,222.061783,-8427.050478,222.061783
4389.665351,296.082377,-8580.269578,-370.102971
4389.665676,444.123565,-8886.707777,-518.144159
4389.666000,666.185348,-8580.269578,-296.082377
4389.666324,444.123565,-8580.269578,-296.082377
4389.666649,296.082377,-8427.050478,-148.041188
4389.666973,148.041188,-8656.879127,-296.082377
4389.667297,222.061783,-9039.926876,-296.082377
4389.667622,296.082377,-8810.098227,-222.061783
4389.667946,222.061783,-7967.393179,222.061783
4389.668270,444.123565,-8810.098227,0.000000
4389.668595,444.123565,-8503.660028,-222.061783
4389.668919,370.102971,-8656.879127,-296.082377
4389.669243,592.164754,-8810.098227,-518.144159
4389.669568,444.123565,-8503.660028,0.000000
4389.669892,518.144159,-8273.831378,-296.082377
4389.670216,296.082377,-8810.098227,-296.082377
4389.670541,296.082377,-8580.269578,-222.061783
4389.670865,518.144159,-8503.660028,-148.041188
4389.671189,222.061783,-8886.707777,-148.041188
4389.671514,74.020594,-8427.050478,-222.061783
4389.671838,296.082377,-8580.269578,0.000000
4389.672162,444.123565,-8273.831378,222.061783
4389.672487,444.123565,-8427.050478,-444.123565
4389.672811,222.061783,-8427.050478,-444.123565
4389.673135,518.144159,-8273.831378,0.000000
4389.673460,370.102971,-8427.050478,-370.102971
4389.673784,592.164754,-8656.879127,-370.102971
4389.674108,296.082377,-8656.879127,-518.144159
4389.674433,222.061783,-8656.879127,-444.123565
4389.674757,296.082377,-8580.269578,-370.102971
4389.675081,740.205942,-8886.707777,-296.082377
4389.675406,592.164754,-8427.050478,-370.102971
4389.675730,740.205942,-8733.488677,-296.082377
4389.676054,814.226536,-8503.660028,-444.123565
4389.676379,666.185348,-8273.831378,-370.102971
4389.676703,518.144159,-8427.050478,-222.061783
4389.677027,370.102971,-8350.440928,-370.102971
4389.677352,296.082377,-8580.269578,-222.061783
4389.677676,370.102971,-8580.269578,-444.123565
4389.678000,444.123565,-8580.269578,-296.082377
4389.678325,370.102971,-8656.879127,0.000000
4389.678649,370.102971,-8733.488677,-296.082377
4389.678973,518.144159,-8503.660028,-370.102971
4389.679297,740.205942,-9193.145976,-222.061783
4389.679622,444.123565,-8733.488677,-370.102971
4389.679946,518.144159,-8503.660028,-296.082377
4389.680270,222.061783,-8350.440928,-148.041188
4389.680595,370.102971,-8886.707777,-740.205942
4389.680919,444.123565,-8503.660028,-222.061783
4389.681243,296.082377,-8810.098227,-518.144159
4389.681568,370.102971,-8503.660028,-518.144159
4389.681892,370.102971,-8733.488677,-222.061783
4389.682216,518.144159,-8733.488677,0.000000
4389.682541,296.082377,-8656.879127,0.000000
4389.682865,518.144159,-8503.660028,-518.144159
4389.683189,370.102971,-8810.098227,-518.144159
4389.683514,814.226536,-8427.050478,-296.082377
4389.683838,370.102971,-8503.660028,-222.061783
4389.684162,148.041188,-8656.879127,-444.123565
4389.684487,518.144159,-8427.050478,-296.082377
4389.684811,518.144159,-9193.145976,-148.041188
4389.685135,222.061783,-8810.098227,-222.061783
4389.685460,296.082377,-8810.098227,-222.061783
4389.685784,592.164754,-8580.269578,-296.082377
4389.686108,296.082377,-8580.269578,-222.061783
4389.686433,592.164754,-8810.098227,-592.164754
4389.686757,592.164754,-8580.269578,-296.082377
4389.687081,296.082377,-8580.269578,0.000000
4389.687406,296.082377,-8656.879127,-370.102971
4389.687730,518.144159,-8427.050478,148.041188
4389.688054,666.185348,-8656.879127,-444.123565
4389.688379,444.123565,-8580.269578,-296.082377
4389.688703,296.082377,-8503.660028,-222.061783
4389.689027,222.061783,-8580.269578,-370.102971
4389.689352,740.205942,-8656.879127,-296.082377
4389.689676,518.144159,-8503.660028,-370.102971
4389.690000,444.123565,-8810.098227,-148.041188
4389.690325,518.144159,-8350.440928,-444.123565
4389.690649,518.144159,-8886.707777,74.020594
4389.690973,518.144159,-8656.879127,-592.164754
4389.691298,370.102971,-8656.879127,-518.144159
4389.691622,444.123565,-9039.926876,-592.164754
4389.691946,740.205942,-8733.488677,-592.164754
4389.692271,518.144159,-8580.269578,-370.102971
4389.692595,444.123565,-8580.269578,-592.164754
4389.692919,518.144159,-8656.879127,-518.144159
4389.693244,370.102971,-8656.879127,-444.123565
4389.693568,518.144159,-8810.098227,-444.123565
4389.693892,518.144159,-8273.831378,-592.164754
4389.694217,444.123565,-8427.050478,-370.102971
4389.694541,370.102971,-8810.098227,-444.123565
4389.694865,814.226536,-8733.488677,-370.102971
4389.695190,370.102971,-8580.269578,-518.144159
4389.695514,222.061783,-8656.879127,-370.102971
4389.695838,518.144159,-8580.269578,-592.164754
4389.696163,222.061783,-8580.269578,-296.082377
4389.696487,296.082377,-8580.269578,-444.123565
4389.696811,518.144159,-8810.098227,-444.123565
4389.697136,444.123565,-8503.660028,-444.123565
4389.697460,592.164754,-8503.660028,-148.041188
4389.697784,296.082377,-8427.050478,-518.144159
4389.698109,444.123565,-8503.660028,-296.082377
4389.698433,444.123565,-8197.221829,-444.123565
4389.698757,666.185348,-8733.488677,-370.102971
4389.699082,592.164754,-8580.269578,-592.164754
4389.699406,518.144159,-8963.317327,-370.102971
4389.699730,222.061783,-8580.269578,-444.123565
4389.700054,370.102971,-8273.831378,-296.082377
4389.700379,518.144159,-8580.269578,-518.144159
4389.700703,518.144159,-8810.098227,-296.082377
4389.701027,518.144159,-8350.440928,-148.041188
4389.701352,370.102971,-8580.269578,-370.102971
4389.701676,148.041188,-8427.050478,-296.082377
4389.702000,962.267725,-8963.317327,-740.205942
4389.702325,296.082377,-8963.317327,-296.082377
4389.702649,148.041188,-8503.660028,0.000000
4389.702973,444.123565,-8580.269578,-296.082377
4389.703298,296.082377,-8197.221829,-666.185348
4389.703622,444.123565,-8580.269578,0.000000
4389.703946,592.164754,-8580.269578,-296.082377
4389.704271,592.164754,-8656.879127,-296.082377
4389.704595,222.061783,-8503.660028,-222.061783
4389.704919,296.082377,-8656.879127,-222.061783
4389.705244,444.123565,-8656.879127,-148.041188
4389.705568,222.061783,-8580.269578,0.000000
4389.705892,74.020594,-8580.269578,-296.082377
4389.706217,444.123565,-9193.145976,-370.102971
4389.706541,296.082377,-8733.488677,-222.061783
4389.706865,518.144159,-8886.707777,-148.041188
4389.707190,296.082377,-8656.879127,-296.082377
4389.707514,592.164754,-9806.022374,0.000000
4389.707838,148.041188,-8273.831378,-74.020594
4389.708163,296.082377,-8503.660028,-296.082377
4389.708487,296.082377,-8733.488677,-370.102971
4389.708811,296.082377,-8733.488677,-148.041188
4389.709136,518.144159,-8427.050478,-370.102971
4389.709460,444.123565,-8656.879127,-370.102971
4389.709784,222.061783,-8580.269578,-370.102971
4389.710108,444.123565,-8580.269578,-148.041188
4389.710433,518.144159,-8503.660028,-518.144159
4389.710757,666.185348,-8886.707777,-296.082377
4389.711081,444.123565,-8350.440928,-370.102971
4389.711406,444.123565,-8273.831378,-296.082377
4389.711730,296.082377,-9193.145976,-666.185348
4389.712054,592.164754,-8656.879127,-444.123565
4389.712379,296.082377,-8503.660028,-444.123565
4389.712703,222.061783,-8427.050478,-222.061783
4389.713027,444.123565,-8580.269578,-444.123565
4389.713352,518.144159,-8733.488677,-222.061783
4389.713676,444.123565,-8656.879127,-518.144159
4389.714000,370.102971,-8503.660028,-444.123565
4389.714325,592.164754,-8656.879127,-592.164754
4389.714649,592.164754,-9346.365076,-296.082377
4389.714973,296.082377,-8656.879127,-296.082377
4389.715297,444.123565,-8810.098227,-518.144159
4389.715622,592.164754,-8120.612279,-592.164754
4389.715946,518.144159,-9116.536426,-444.123565
4389.716270,370.102971,-8733.488677,-370.102971
4389.716595,444.123565,-8810.098227,-296.082377
4389.716919,370.102971,-8580.269578,-666.185348
4389.717243,592.164754,-8656.879127,-444.123565
4389.717568,370.102971,-8580.269578,-444.123565
4389.717892,444.123565,-8580.269578,-370.102971
4389.718216,296.082377,-8350.440928,-370.102971
4389.718541,222.061783,-8656.879127,-444.123565
4389.718865,0.000000,-8427.050478,0.000000
4389.719189,222.061783,-8503.660028,-370.102971
4389.719514,370.102971,-8963.317327,-518.144159
4389.719838,370.102971,-8810.098227,-444.123565
4389.720162,444.123565,-8733.488677,-222.061783
4389.720486,296.082377,-8503.660028,-370.102971
4389.720811,592.164754,-8580.269578,-444.123565
4389.721135,296.082377,-8656.879127,-296.082377
4389.721459,518.144159,-8503.660028,-444.123565
4389.721784,370.102971,-8503.660028,0.000000
4389.722108,222.061783,-8427.050478,0.000000
4389.722432,222.061783,-8656.879127,-148.041188
4389.722757,296.082377,-8656.879127,-148.041188
4389.723081,74.020594,-8120.612279,-148.041188
4389.723405,666.185348,-8503.660028,-296.082377
4389.723730,296.082377,-8733.488677,-296.082377
4389.724054,296.082377,-8503.660028,-222.061783
4389.724378,148.041188,-8503.660028,-296.082377
4389.724702,592.164754,-8580.269578,-518.144159
4389.725027,666.185348,-8733.488677,-370.102971
4389.725351,444.123565,-8503.660028,-444.123565
4389.725675,444.123565,-8963.317327,-444.123565
4389.726000,962.267725,-8273.831378,-592.164754
4389.726324,666.185348,-8503.660028,-518.144159
4389.726648,666.185348,-8580.269578,-740.205942
4389.726973,740.205942,-8733.488677,-370.102971
4389.727297,444.123565,-8427.050478,-592.164754
4389.727621,592.164754,-9039.926876,-444.123565
4389.727946,370.102971,-8580.269578,-740.205942
4389.728270,518.144159,-8810.098227,-666.185348
4389.728594,592.164754,-8427.050478,-592.164754
4389.728919,296.082377,-8733.488677,-444.123565
4389.729243,518.144159,-8350.440928,-518.144159
4389.729567,370.102971,-8656.879127,-444.123565
4389.729891,518.144159,-8503.660028,-740.205942
4389.730216,370.102971,-7967.393179,0.000000
4389.730540,222.061783,-8733.488677,-444.123565
4389.730864,222.061783,-8656.879127,-370.102971
4389.731189,518.144159,-8503.660028,-518.144159
4389.731513,222.061783,-8810.098227,-518.144159
4389.731837,518.144159,-9039.926876,-592.164754
4389.732162,296.082377,-8427.050478,-370.102971
4389.732486,444.123565,-8656.879127,-444.123565
4389.732810,296.082377,-8427.050478,-296.082377
4389.733135,444.123565,-8810.098227,-370.102971
4389.733459,444.123565,-8580.269578,-518.144159
4389.733783,444.123565,-8656.879127,-296.082377
4389.734108,444.123565,-8580.269578,-296.082377
4389.734432,74.020594,-9039.926876,0.000000
4389.734756,592.164754,-8503.660028,-222.061783
4389.735080,370.102971,-8580.269578,-370.102971
4389.735405,740.205942,-8656.879127,-518.144159
4389.735729,370.102971,-8427.050478,-370.102971
4389.736053,370.102971,-8580.269578,-296.082377
4389.736378,518.144159,-8427.050478,-370.102971
4389.736702,296.082377,-8427.050478,-370.102971
4389.737026,592.164754,-8810.098227,-666.185348
4389.737351,518.144159,-7890.783629,-592.164754
4389.737675,148.041188,-8810.098227,-222.061783
4389.737999,666.185348,-8580.269578,-296.082377
4389.738324,666.185348,-8503.660028,-296.082377
4389.738648,444.123565,-8810.098227,0.000000
4389.738972,296.082377,-8580.269578,0.000000
4389.739296,148.041188,-8580.269578,-222.061783
4389.739621,444.123565,-9039.926876,-222.061783
4389.739945,296.082377,-8350.440928,0.000000
4389.740269,296.082377,-8350.440928,-296.082377
4389.740594,518.144159,-8580.269578,-370.102971
4389.740918,74.020594,-8733.488677,0.000000
4389.741242,222.061783,-8733.488677,-148.041188
4389.741567,518.144159,-8656.879127,0.000000
4389.741891,444.123565,-8886.707777,0.000000
4389.742215,222.061783,-8503.660028,0.000000
4389.742540,518.144159,-8503.660028,0.000000
4389.742864,444.123565,-8656.879127,0.000000
4389.743188,74.020594,-8733.488677,-296.082377
4389.743513,296.082377,-8580.269578,-444.123565
4389.743837,444.123565,-8656.879127,-296.082377
4389.744161,74.020594,-8427.050478,-222.061783
4389.744485,444.123565,-8963.317327,-148.041188
4389.744810,296.082377,-8656.879127,-222.061783
4389.745134,518.144159,-8580.269578,-444.123565
4389.745458,666.185348,-8733.488677,-370.102971
4389.745783,1110.308913,-8886.707777,-222.061783
4389.746107,518.144159,-8503.660028,-148.041188
4389.746431,592.164754,-8503.660028,-740.205942
4389.746756,740.205942,-8656.879127,-518.144159
4389.747080,444.123565,-8427.050478,0.000000
4389.747404,518.144159,-8733.488677,-222.061783
4389.747729,296.082377,-8580.269578,-444.123565
4389.748053,296.082377,-8886.707777,-222.061783
4389.748377,370.102971,-8656.879127,-592.164754
4389.748702,148.041188,-8273.831378,0.000000
4389.749026,370.102971,-8580.269578,-592.164754
4389.749350,518.144159,-8656.879127,0.000000
4389.749674,666.185348,-8503.660028,-296.082377
4389.749999,296.082377,-8273.831378,0.000000
4389.750323,370.102971,-8656.879127,-444.123565
4389.750647,814.226536,-8273.831378,-518.144159
4389.750972,370.102971,-8886.707777,-518.144159
4389.751296,444.123565,-8810.098227,-74.020594
4389.751620,740.205942,-8503.660028,-518.144159
4389.751945,666.185348,-8733.488677,-296.082377
4389.752269,296.082377,-8656.879127,-296.082377
4389.752593,444.123565,-8656.879127,-444.123565
4389.752918,518.144159,-8656.879127,-296.082377
4389.753242,592.164754,-8273.831378,-222.061783
4389.753566,740.205942,-8886.707777,-296.082377
4389.753890,222.061783,-8503.660028,-222.061783
4389.754215,296.082377,-7967.393179,-222.061783
4389.754539,74.020594,-8350.440928,-148.041188
4389.754863,148.041188,-8886.707777,0.000000
4389.755188,148.041188,-8810.098227,-296.082377
4389.755512,296.082377,-8733.488677,-222.061783
4389.755836,222.061783,-8656.879127,-74.020594
4389.756161,370.102971,-8733.488677,-148.041188
4389.756485,444.123565,-8044.002729,-222.061783
4389.756809,518.144159,-8656.879127,-74.020594
4389.757134,0.000000,-8580.269578,-222.061783
4389.757458,296.082377,-8580.269578,-74.020594
4389.757782,370.102971,-8886.707777,0.000000
4389.758107,222.061783,-8733.488677,0.000000
4389.758431,74.020594,-7737.564530,444.123565
4389.758755,0.000000,-8350.440928,0.000000
4389.759079,444.123565,-8350.440928,0.000000
4389.759404,444.123565,-8733.488677,-370.102971
4389.759728,74.020594,-8656.879127,0.000000
4389.760052,148.041188,-8120.612279,0.000000
4389.760377,222.061783,-8580.269578,-370.102971
4389.760701,74.020594,-8886.707777,-148.041188
4389.761025,444.123565,-8580.269578,-222.061783
4389.761350,148.041188,-8350.440928,-148.041188
4389.761674,370.102971,-8733.488677,-222.061783
4389.761998,518.144159,-8580.269578,-518.144159
4389.762323,444.123565,-8733.488677,-296.082377
4389.762647,518.144159,-8580.269578,0.000000
4389.762971,666.185348,-8427.050478,-370.102971
4389.763296,444.123565,-8503.660028,-222.061783
4389.763620,518.144159,-8350.440928,-592.164754
4389.763944,518.144159,-8656.879127,-518.144159
4389.764268,444.123565,-8656.879127,-370.102971
4389.764593,592.164754,-8810.098227,-740.205942
4389.764917,370.102971,-8580.269578,-592.164754
4389.765241,666.185348,-8656.879127,-296.082377
4389.765566,592.164754,-8273.831378,0.000000
4389.765890,592.164754,-8733.488677,-370.102971
4389.766214,444.123565,-8350.440928,-592.164754
4389.766539,518.144159,-8503.660028,-740.205942
4389.766863,370.102971,-7584.345430,-592.164754
4389.767187,592.164754,-8273.831378,-370.102971
4389.767512,296.082377,-8580.269578,-518.144159
4389.767836,370.102971,-8656.879127,-444.123565
4389.768160,518.144159,-8810.098227,-666.185348
4389.768484,296.082377,-8503.660028,-444.123565
4389.768809,370.102971,-8656.879127,-370.102971
4389.769133,592.164754,-8580.269578,-370.102971
4389.769457,666.185348,-8656.879127,-518.144159
4389.769782,296.082377,-8273.831378,-296.082377
4389.770106,518.144159,-8963.317327,-370.102971
4389.770430,518.144159,-8350.440928,-148.041188
4389.770755,518.144159,-8733.488677,-222.061783
4389.771079,148.041188,-8580.269578,-370.102971
4389.771403,296.082377,-8656.879127,0.000000
4389.771728,592.164754,-8503.660028,-444.123565
4389.772052,444.123565,-8656.879127,-444.123565
4389.772376,444.123565,-8733.488677,-296.082377
4389.772701,296.082377,-8503.660028,-592.164754
4389.773025,444.123565,-8350.440928,-370.102971
4389.773349,518.144159,-8580.269578,-444.123565
4389.773673,444.123565,-8733.488677,-148.041188
4389.773998,592.164754,-8350.440928,-222.061783
4389.774322,222.061783,-8656.879127,0.000000
4389.774646,370.102971,-8503.660028,-222.061783
4389.774971,518.144159,-8427.050478,-296.082377
4389.775295,444.123565,-8733.488677,-296.082377
4389.775619,592.164754,-8580.269578,0.000000
4389.775944,370.102971,-8886.707777,0.000000
4389.776268,370.102971,-8810.098227,0.000000
4389.776592,222.061783,-8427.050478,-148.041188
4389.776917,296.082377,-9269.755526,-370.102971
4389.777241,518.144159,-8427.050478,-148.041188
4389.777565,222.061783,-8580.269578,0.000000
4389.777890,518.144159,-8733.488677,-296.082377
4389.778214,148.041188,-8810.098227,0.000000
4389.778538,592.164754,-8656.879127,0.000000
4389.778862,296.082377,-8580.269578,-296.082377
4389.779187,444.123565,-8656.879127,0.000000
4389.779511,444.123565,-8656.879127,-148.041188
4389.779835,444.123565,-8810.098227,-518.144159
4389.780160,666.185348,-8503.660028,-370.102971
4389.780484,592.164754,-8656.879127,-370.102971
4389.780808,592.164754,-8503.660028,0.000000
4389.781133,814.226536,-9193.145976,-666.185348
4389.781457,518.144159,-9039.926876,-370.102971
4389.781781,888.247130,-8580.269578,-666.185348
4389.782106,814.226536,-8886.707777,-444.123565
4389.782430,518.144159,-8810.098227,-444.123565
4389.782754,740.205942,-8350.440928,-444.123565
4389.783078,444.123565,-8350.440928,-370.102971
4389.783403,296.082377,-8656.879127,-222.061783
4389.783727,444.123565,-8503.660028,-370.102971
4389.784051,370.102971,-8656.879127,0.000000
4389.784376,444.123565,-8350.440928,-222.061783
4389.784700,444.123565,-8733.488677,-222.061783
4389.785024,814.226536,-8580.269578,-148.041188
4389.785349,888.247130,-9039.926876,-148.041188
4389.785673,444.123565,-8656.879127,-222.061783
4389.785997,444.123565,-8656.879127,-222.061783
4389.786322,444.123565,-8886.707777,0.000000
4389.786646,370.102971,-8810.098227,-222.061783
4389.786970,518.144159,-8580.269578,0.000000
4389.787295,444.123565,-8580.269578,-592.164754
4389.787619,370.102971,-8503.660028,0.000000
4389.787943,444.123565,-8350.440928,-148.041188
4389.788267,74.020594,-8733.488677,0.000000
4389.788592,444.123565,-8273.831378,-296.082377
4389.788916,296.082377,-8810.098227,0.000000
4389.789240,444.123565,-8580.269578,-518.144159
4389.789565,666.185348,-9269.755526,148.041188
4389.789889,444.123565,-8503.660028,-296.082377
4389.790213,222.061783,-8810.098227,-148.041188
4389.790538,296.082377,-8580.269578,-148.041188
4389.790862,518.144159,-8656.879127,-148.041188
4389.791186,666.185348,-8427.050478,0.000000
4389.791511,370.102971,-8503.660028,0.000000
4389.791835,444.123565,-8810.098227,-444.123565
4389.792159,370.102971,-8350.440928,-222.061783
4389.792484,74.020594,-8886.707777,0.000000
4389.792808,370.102971,-8427.050478,-222.061783
4389.793132,444.123565,-8427.050478,0.000000
4389.793456,296.082377,-8350.440928,-370.102971
4389.793781,370.102971,-8810.098227,0.000000
4389.794105,222.061783,-8197.221829,0.000000
4389.794429,296.082377,-8656.879127,-296.082377
4389.794754,444.123565,-8044.002729,-148.041188
4389.795078,296.082377,-8733.488677,-148.041188
4389.795402,370.102971,-8427.050478,-296.082377
4389.795727,444.123565,-8503.660028,-296.082377
4389.796051,592.164754,-8733.488677,-370.102971
4389.796375,222.061783,-8733.488677,-148.041188
4389.796700,444.123565,-9193.145976,0.000000
4389.797024,370.102971,-8886.707777,-370.102971
4389.797348,370.102971,-8350.440928,-370.102971
4389.797672,592.164754,-8733.488677,-444.123565
4389.797997,592.164754,-9346.365076,-296.082377
4389.798321,444.123565,-8427.050478,-592.164754
4389.798645,296.082377,-8810.098227,-740.205942
4389.798970,370.102971,-8503.660028,-740.205942
4389.799294,444.123565,-8580.269578,-666.185348
4389.799618,222.061783,-9116.536426,-592.164754
4389.799943,296.082377,-8656.879127,-518.144159
4389.800267,296.082377,-8656.879127,-592.164754
4389.800591,296.082377,-8886.707777,-666.185348
4389.800916,148.041188,-8886.707777,-444.123565
4389.801240,296.082377,-8503.660028,-666.185348
4389.801564,444.123565,-8580.269578,-370.102971
4389.801889,370.102971,-8656.879127,-740.205942
4389.802213,370.102971,-8810.098227,-888.247130
4389.802537,222.061783,-8503.660028,-666.185348
4389.802861,222.061783,-8886.707777,-518.144159
4389.803186,370.102971,-8580.269578,-666.185348
4389.803510,518.144159,-8580.269578,-592.164754
4389.803834,592.164754,-8656.879127,-518.144159
4389.804159,296.082377,-8580.269578,-222.061783
4389.804483,518.144159,-8427.050478,-740.205942
4389.804807,444.123565,-8503.660028,-518.144159
4389.805132,592.164754,-8503.660028,-370.102971
4389.805456,222.061783,-8503.660028,-592.164754
4389.805780,222.061783,-8810.098227,-666.185348
4389.806104,222.061783,-8503.660028,-444.123565
4389.806429,370.102971,-8503.660028,-962.267725
4389.806753,592.164754,-8580.269578,-740.205942
4389.807077,296.082377,-8656.879127,-444.123565
4389.807401,370.102971,-8810.098227,-296.082377
4389.807726,370.102971,-8503.660028,-222.061783
4389.808050,666.185348,-8886.707777,-370.102971
4389.808374,518.144159,-8963.317327,0.000000
4389.808698,592.164754,-8810.098227,-296.082377
4389.809023,296.082377,-8656.879127,-444.123565
4389.809347,740.205942,-8503.660028,-444.123565
4389.809671,666.185348,-8427.050478,-592.164754
4389.809996,666.185348,-8810.098227,-222.061783
4389.810320,296.082377,-8350.440928,-222.061783
4389.810644,444.123565,-8810.098227,-148.041188
4389.810968,592.164754,-8733.488677,-148.041188
4389.811293,296.082377,-8580.269578,0.000000
4389.811617,518.144159,-8810.098227,-222.061783
4389.811941,666.185348,-8580.269578,0.000000
4389.812265,222.061783,-8733.488677,74.020594
4389.812590,370.102971,-8580.269578,-148.041188
4389.812914,296.082377,-8810.098227,-148.041188
4389.813238,296.082377,-8580.269578,0.000000
4389.813562,444.123565,-8580.269578,0.000000
4389.813887,148.041188,-8503.660028,0.000000
4389.814211,518.144159,-8886.707777,-148.041188
4389.814535,222.061783,-8350.440928,-296.082377
4389.814860,444.123565,-8580.269578,-222.061783
4389.815184,444.123565,-8886.707777,-518.144159
4389.815508,296.082377,-8350.440928,0.000000
4389.815832,370.102971,-8580.269578,-222.061783
4389.816157,370.102971,-8427.050478,-370.102971
4389.816481,444.123565,-9039.926876,74.020594
4389.816805,296.082377,-8503.660028,-444.123565
4389.817129,444.123565,-8427.050478,-444.123565
4389.817454,74.020594,-8273.831378,-148.041188
4389.817778,444.123565,-9039.926876,0.000000
4389.818102,518.144159,-8044.002729,-370.102971
4389.818427,370.102971,-8656.879127,0.000000
4389.818751,370.102971,-8580.269578,-370.102971
4389.819075,444.123565,-8503.660028,-296.082377
4389.819399,444.123565,-8503.660028,-888.247130
4389.819724,296.082377,-8503.660028,-296.082377
4389.820048,444.123565,-8350.440928,-518.144159
4389.820372,518.144159,-8656.879127,-518.144159
4389.820696,888.247130,-8580.269578,-148.041188
4389.821021,296.082377,-8273.831378,-296.082377
4389.821345,592.164754,-8656.879127,-296.082377
4389.821669,370.102971,-8503.660028,-370.102971
4389.821993,592.164754,-8733.488677,-370.102971
4389.822318,296.082377,-8273.831378,-666.185348
4389.822642,370.102971,-8580.269578,0.000000
4389.822966,296.082377,-8656.879127,-444.123565
4389.823291,444.123565,-8656.879127,-296.082377
4389.823615,962.267725,-8427.050478,-592.164754
4389.823939,296.082377,-8580.269578,-370.102971
4389.824263,222.061783,-8273.831378,-296.082377
4389.824588,296.082377,-8580.269578,-222.061783
4389.824912,888.247130,-8580.269578,-518.144159
4389.825236,518.144159,-8886.707777,-296.082377
4389.825560,518.144159,-8733.488677,-518.144159
4389.825885,370.102971,-8350.440928,-444.123565
4389.826209,444.123565,-8656.879127,-444.123565
4389.826533,222.061783,-8503.660028,-518.144159
4389.826857,296.082377,-8733.488677,-592.164754
4389.827182,444.123565,-8733.488677,-222.061783
4389.827506,518.144159,-8503.660028,-444.123565
4389.827830,962.267725,-8427.050478,-370.102971
4389.828155,222.061783,-8733.488677,-296.082377
4389.828479,148.041188,-8656.879127,-222.061783
4389.828803,444.123565,-8580.269578,-296.082377
4389.829127,444.123565,-8733.488677,74.020594
4389.829452,222.061783,-8580.269578,0.000000
4389.829776,0.000000,-8886.707777,-296.082377
4389.830100,0.000000,-8580.269578,-222.061783
4389.830424,444.123565,-8273.831378,-296.082377
4389.830749,444.123565,-8427.050478,-222.061783
4389.831073,296.082377,-8733.488677,-222.061783
4389.831397,296.082377,-8503.660028,-370.102971
4389.831721,370.102971,-8886.707777,-370.102971
4389.832046,0.000000,-8044.002729,0.000000
4389.832370,222.061783,-8810.098227,-592.164754
4389.832694,740.205942,-8733.488677,-518.144159
4389.833019,592.164754,-8427.050478,-518.144159
4389.833343,370.102971,-8733.488677,0.000000
4389.833667,518.144159,-8580.269578,-444.123565
4389.833991,518.144159,-8503.660028,-444.123565
4389.834316,444.123565,-8580.269578,-592.164754
4389.834640,444.123565,-8656.879127,-592.164754
4389.834964,148.041188,-8120.612279,-296.082377
4389.835288,518.144159,-8503.660028,-592.164754
4389.835613,370.102971,-8427.050478,-666.185348
4389.835937,444.123565,-8810.098227,-888.247130
4389.836261,740.205942,-7814.174080,-222.061783
4389.836586,148.041188,-8580.269578,-518.144159
4389.836910,518.144159,-8427.050478,-740.205942
4389.837234,370.102971,-8503.660028,-518.144159
4389.837558,592.164754,-8963.317327,-592.164754
4389.837883,296.082377,-8886.707777,-370.102971
4389.838207,518.144159,-8656.879127,-444.123565
4389.838531,148.041188,-8810.098227,-222.061783
4389.838855,296.082377,-8580.269578,-370.102971
4389.839180,518.144159,-8427.050478,-296.082377
4389.839504,518.144159,-8656.879127,-296.082377
4389.839828,666.185348,-8503.660028,-370.102971
4389.840152,370.102971,-8503.660028,-296.082377
4389.840477,518.144159,-8503.660028,-148.041188
4389.840801,222.061783,-8427.050478,-296.082377
4389.841125,518.144159,-8810.098227,-222.061783
4389.841450,370.102971,-8427.050478,-592.164754
4389.841774,444.123565,-8810.098227,-148.041188
4389.842098,518.144159,-8350.440928,-444.123565
4389.842422,518.144159,-8733.488677,0.000000
4389.842747,370.102971,-8427.050478,-370.102971
4389.843071,370.102971,-8733.488677,0.000000
4389.843395,518.144159,-8197.221829,0.000000
4389.843719,370.102971,-8427.050478,-370.102971
4389.844044,222.061783,-8580.269578,-296.082377
4389.844368,444.123565,-8350.440928,-296.082377
4389.844692,444.123565,-7890.783629,74.020594
4389.845016,296.082377,-8580.269578,0.000000
4389.845341,370.102971,-8503.660028,-148.041188
4389.845665,666.185348,-8656.879127,0.000000
4389.845989,444.123565,-8427.050478,-296.082377
4389.846314,222.061783,-8580.269578,74.020594
4389.846638,666.185348,-8350.440928,-296.082377
4389.846962,370.102971,-8273.831378,0.000000
4389.847286,370.102971,-8733.488677,0.000000
4389.847611,518.144159,-8350.440928,-222.061783
4389.847935,296.082377,-8427.050478,-222.061783
4389.848259,222.061783,-8810.098227,0.000000
4389.848583,444.123565,-8656.879127,0.000000
4389.848908,444.123565,-7814.174080,0.000000
4389.849232,296.082377,-8427.050478,-296.082377
4389.849556,444.123565,-8580.269578,-296.082377
4389.849881,444.123565,-8810.098227,-518.144159
4389.850205,370.102971,-8427.050478,-222.061783
4389.850529,370.102971,-8427.050478,-370.102971
4389.850853,148.041188,-8733.488677,-444.123565
4389.851178,370.102971,-8273.831378,-444.123565
4389.851502,518.144159,-9039.926876,-592.164754
4389.851826,444.123565,-9422.974625,-296.082377
4389.852150,296.082377,-8503.660028,-148.041188
4389.852475,444.123565,-8503.660028,-444.123565
4389.852799,444.123565,-8273.831378,-444.123565
4389.853123,296.082377,-8427.050478,-444.123565
4389.853447,444.123565,-8580.269578,-296.082377
4389.853772,592.164754,-8580.269578,-518.144159
4389.854096,148.041188,-8427.050478,-370.102971
4389.854420,222.061783,-8886.707777,-296.082377
4389.854745,0.000000,-8427.050478,-370.102971
4389.855069,592.164754,-8810.098227,-518.144159
4389.855393,222.061783,-8580.269578,-518.144159
4389.855717,444.123565,-8733.488677,-370.102971
4389.856042,518.144159,-8427.050478,-296.082377
4389.856366,518.144159,-8350.440928,-444.123565
4389.856690,592.164754,-8656.879127,-370.102971
4389.857014,666.185348,-8810.098227,-370.102971
4389.857339,296.082377,-8350.440928,-222.061783
4389.857663,444.123565,-8810.098227,-518.144159
4389.857987,444.123565,-8733.488677,-370.102971
4389.858311,296.082377,-8427.050478,-370.102971
4389.858636,370.102971,-8503.660028,-370.102971
4389.858960,370.102971,-8427.050478,-370.102971
4389.859284,370.102971,-8580.269578,-370.102971
4389.859609,444.123565,-8656.879127,-296.082377
4389.859933,370.102971,-8503.660028,-370.102971
4389.860257,518.144159,-8733.488677,0.000000
4389.860581,370.102971,-8427.050478,-518.144159
4389.860906,222.061783,-8656.879127,0.000000
4389.861230,148.041188,-8656.879127,-370.102971
4389.861554,370.102971,-8580.269578,-222.061783
4389.861878,518.144159,-8427.050478,-370.102971
4389.862203,518.144159,-8580.269578,-370.102971
4389.862527,148.041188,-8656.879127,-148.041188
4389.862851,518.144159,-8810.098227,0.000000
4389.863176,444.123565,-8733.488677,-444.123565
4389.863500,518.144159,-8580.269578,0.000000
4389.863824,444.123565,-8656.879127,-518.144159
4389.864148,296.082377,-8580.269578,148.041188
4389.864473,222.061783,-9499.584175,-148.041188
4389.864797,296.082377,-8503.660028,0.000000
4389.865121,592.164754,-8427.050478,-296.082377
4389.865445,592.164754,-8733.488677,-222.061783
4389.865770,518.144159,-8580.269578,0.000000
4389.866094,222.061783,-8580.269578,0.000000
4389.866418,148.041188,-8580.269578,-148.041188
4389.866742,370.102971,-8503.660028,-222.061783
4389.867067,296.082377,-8733.488677,-222.061783
4389.867391,740.205942,-9193.145976,-370.102971
4389.867715,518.144159,-8273.831378,-222.061783
4389.868040,74.020594,-8810.098227,0.000000
4389.868364,518.144159,-8656.879127,-296.082377
4389.868688,666.185348,-8810.098227,-370.102971
4389.869012,814.226536,-8810.098227,-444.123565
4389.869337,518.144159,-8656.879127,-370.102971
4389.869661,370.102971,-8656.879127,-592.164754
4389.869985,592.164754,-8733.488677,-370.102971
4389.870309,518.144159,-8503.660028,-370.102971
4389.870634,666.185348,-8963.317327,-592.164754
4389.870958,444.123565,-8733.488677,-740.205942
4389.871282,370.102971,-8580.269578,-370.102971
4389.871606,518.144159,-9039.926876,0.000000
4389.871931,370.102971,-8656.879127,-296.082377
4389.872255,370.102971,-8733.488677,-592.164754
4389.872579,296.082377,-8656.879127,-592.164754
4389.872904,444.123565,-8810.098227,-444.123565
4389.873228,518.144159,-8580.269578,-592.164754
4389.873552,222.061783,-8580.269578,-444.123565
4389.873876,814.226536,-8733.488677,-592.164754
4389.874201,518.144159,-8580.269578,-814.226536
4389.874525,814.226536,-8810.098227,-370.102971
4389.874849,296.082377,-8427.050478,-296.082377
4389.875173,222.061783,-8656.879127,-296.082377
4389.875498,370.102971,-8733.488677,-296.082377
4389.875822,0.000000,-8733.488677,-296.082377
4389.876146,518.144159,-8580.269578,-518.144159
4389.876470,148.041188,-8503.660028,-370.102971
4389.876795,592.164754,-8810.098227,0.000000
4389.877119,296.082377,-8427.050478,-370.102971
4389.877443,370.102971,-8810.098227,-296.082377
4389.877768,296.082377,-8580.269578,-296.082377
4389.878092,444.123565,-8427.050478,-296.082377
4389.878416,296.082377,-8273.831378,-148.041188
4389.878740,74.020594,-8733.488677,370.102971
4389.879065,518.144159,-8656.879127,-444.123565
4389.879389,444.123565,-8503.660028,-370.102971
4389.879713,222.061783,-8350.440928,-222.061783
4389.880037,444.123565,-8733.488677,0.000000
4389.880362,222.061783,-8733.488677,0.000000
4389.880686,222.061783,-8427.050478,-296.082377
4389.881010,518.144159,-8656.879127,-148.041188
4389.881335,370.102971,-8503.660028,-296.082377
4389.881659,444.123565,-8427.050478,74.020594
4389.881983,296.082377,-8427.050478,0.000000
4389.882307,222.061783,-8733.488677,74.020594
4389.882632,296.082377,-8273.831378,-444.123565
4389.882956,0.000000,-8656.879127,0.000000
4389.883280,296.082377,-8350.440928,0.000000
4389.883604,296.082377,-8656.879127,-222.061783
4389.883929,296.082377,-8503.660028,-222.061783
4389.884253,444.123565,-8120.612279,-222.061783
4389.884577,444.123565,-8886.707777,0.000000
4389.884901,518.144159,-8503.660028,0.000000
4389.885226,222.061783,-8427.050478,0.000000
4389.885550,0.000000,-8350.440928,0.000000
4389.885874,148.041188,-8656.879127,0.000000
4389.886199,370.102971,-8580.269578,-370.102971
4389.886523,296.082377,-8580.269578,-74.020594
4389.886847,444.123565,-8580.269578,-296.082377
4389.887171,296.082377,-8733.488677,148.041188
4389.887496,592.164754,-8503.660028,-666.185348
4389.887820,518.144159,-8503.660028,-296.082377
4389.888144,592.164754,-8580.269578,-592.164754
4389.888468,592.164754,-8350.440928,-296.082377
4389.888793,370.102971,-8197.221829,-444.123565
4389.889117,666.185348,-8427.050478,-518.144159
4389.889441,370.102971,-8656.879127,-296.082377
4389.889765,370.102971,-8656.879127,-518.144159
4389.890090,0.000000,-8120.612279,-444.123565
4389.890414,592.164754,-8427.050478,-666.185348
4389.890738,444.123565,-9039.926876,-444.123565
4389.891063,444.123565,-8503.660028,-296.082377
4389.891387,814.226536,-9193.145976,0.000000
4389.891711,666.185348,-8656.879127,-592.164754
4389.892035,740.205942,-8427.050478,-296.082377
4389.892360,592.164754,-8733.488677,-444.123565
4389.892684,814.226536,-8350.440928,-370.102971
4389.893008,592.164754,-8580.269578,-296.082377
4389.893332,666.185348,-8810.098227,-296.082377
4389.893657,296.082377,-8503.660028,0.000000
4389.893981,296.082377,-8503.660028,-148.041188
4389.894305,592.164754,-8656.879127,-444.123565
4389.894630,296.082377,-8427.050478,-518.144159
4389.894954,296.082377,-8580.269578,-370.102971
4389.895278,740.205942,-8580.269578,-296.082377
4389.895602,444.123565,-8503.660028,0.000000
4389.895927,370.102971,-8580.269578,-444.123565
4389.896251,444.123565,-8886.707777,-296.082377
4389.896575,518.144159,-8503.660028,-370.102971
4389.896899,518.144159,-8963.317327,-296.082377
4389.897224,222.061783,-8350.440928,0.000000
4389.897548,222.061783,-8656.879127,-296.082377
4389.897872,0.000000,-8427.050478,-444.123565
4389.898196,296.082377,-8503.660028,-222.061783
4389.898521,296.082377,-8350.440928,-296.082377
4389.898845,444.123565,-8273.831378,0.000000
4389.899169,222.061783,-8427.050478,-296.082377
4389.899494,0.000000,-8656.879127,-148.041188
4389.899818,740.205942,-8810.098227,0.000000
4389.900142,296.082377,-8656.879127,0.000000
4389.900466,148.041188,-8656.879127,-222.061783
4389.900791,74.020594,-8580.269578,0.000000
4389.901115,74.020594,-8733.488677,-296.082377
4389.901439,296.082377,-8273.831378,-296.082377
4389.901763,444.123565,-8656.879127,-370.102971
4389.902088,296.082377,-8580.269578,-148.041188
4389.902412,592.164754,-8350.440928,-444.123565
4389.902736,740.205942,-8886.707777,-222.061783
4389.903060,296.082377,-8503.660028,-296.082377
4389.903385,370.102971,-8503.660028,-370.102971
4389.903709,444.123565,-8733.488677,-592.164754
4389.904033,296.082377,-9039.926876,-444.123565
4389.904358,370.102971,-8580.269578,-370.102971
4389.904682,222.061783,-8580.269578,-222.061783
4389.905006,370.102971,-8580.269578,-444.123565
4389.905330,222.061783,-8503.660028,-592.164754
4389.905655,1036.288319,-8427.050478,-518.144159
4389.905979,296.082377,-8350.440928,-296.082377
4389.906303,148.041188,-8733.488677,-444.123565
4389.906628,666.185348,-8273.831378,-666.185348
4389.906952,444.123565,-8427.050478,-1184.329507
4389.907276,666.185348,-8656.879127,-666.185348
4389.907601,222.061783,-8886.707777,-592.164754
4389.907925,444.123565,-8580.269578,-444.123565
4389.908249,814.226536,-8886.707777,-740.205942
4389.908573,370.102971,-8427.050478,-296.082377
4389.908898,666.185348,-8810.098227,-592.164754
4389.909222,592.164754,-8427.050478,-296.082377
4389.909546,592.164754,-8273.831378,-518.144159
4389.909871,370.102971,-9193.145976,-518.144159
4389.910195,518.144159,-8580.269578,-592.164754
4389.910519,370.102971,-8503.660028,-518.144159
4389.910844,370.102971,-8656.879127,-518.144159
4389.911168,518.144159,-9576.193725,0.000000
4389.911492,518.144159,-8427.050478,-222.061783
4389.911817,518.144159,-8963.317327,-296.082377
4389.912141,444.123565,-8656.879127,-518.144159
4389.912465,518.144159,-8810.098227,-518.144159
4389.912789,148.041188,-8580.269578,0.000000
4389.913114,222.061783,-8350.440928,-370.102971
4389.913438,296.082377,-8503.660028,-222.061783
4389.913762,296.082377,-8427.050478,-370.102971
4389.914087,148.041188,-9193.145976,0.000000
4389.914411,370.102971,-8503.660028,-222.061783
4389.914735,444.123565,-8656.879127,-296.082377
4389.915060,518.144159,-8580.269578,-222.061783
4389.915384,444.123565,-8733.488677,74.020594
4389.915708,370.102971,-8810.098227,-444.123565
4389.916032,592.164754,-8503.660028,-370.102971
4389.916357,444.123565,-8120.612279,-444.123565
4389.916681,518.144159,-8733.488677,-296.082377
4389.917005,0.000000,-8197.221829,-296.082377
4389.917330,592.164754,-8503.660028,-222.061783
4389.917654,592.164754,-8503.660028,-370.102971
4389.917978,296.082377,-8427.050478,0.000000
